,subj,rating,zScored_ratings,rt,raw_image_name,sliderStart,trial,block,image,pair,sourceImageA,sourceImageB,morphPercent,imageInd
4744,0le1c,0.382,1.0325459857275692,26.659000000059606,images/experiment/pair_101_57_out_tensor(0.6667).png,46.0,5,1,101_57_0.67,101_57_,101,57,0.67,48
10344,0le1c,0.32,0.7563255565025742,66.575,images/experiment/101_start.png,394.0,6,1,101,101,101,,,6
5144,0le1c,0.146,-0.018873712612734315,23.0129999999702,images/experiment/pair_64_57_out_tensor(0.6667).png,96.0,7,1,64_57_0.67,64_57_,64,57,0.67,39
9144,0le1c,0.194,0.19497436162597145,31.9710000000149,images/experiment/pair_5_92_out_tensor(0.5000).png,124.0,8,1,5_92_0.5,5_92_,5,92,0.5,14
1144,0le1c,0.058,-0.4109285153836949,28.4520000000298,images/experiment/pair_5_101_out_tensor(0.3333).png,47.0,9,1,5_101_0.33,5_101_,5,101,0.33,16
6144,0le1c,0.146,-0.018873712612734315,23.793000000044703,images/experiment/pair_37_92_out_tensor(0.5000).png,495.0,10,1,37_92_0.5,37_92_,37,92,0.5,29
1944,0le1c,0.088,-0.2772734689845038,30.1689999999851,images/experiment/pair_101_92_out_tensor(0.6667).png,9.0,11,1,101_92_0.67,101_92_,101,92,0.67,54
544,0le1c,0.028,-0.544583561782886,26.455,images/experiment/pair_37_57_out_tensor(0.3333).png,28.0,12,1,37_57_0.33,37_57_,37,57,0.33,22
3544,0le1c,0.68,2.360186113292867,37.7139999999851,images/experiment/pair_5_41_out_tensor(0.3333).png,243.0,13,1,5_41_0.33,5_41_,5,41,0.33,7
9344,0le1c,0.086,-0.28618380541111654,33.832999999970205,images/experiment/pair_37_64_out_tensor(0.6667).png,496.0,14,1,37_64_0.67,37_64_,37,64,0.67,27
8344,0le1c,0.088,-0.2772734689845038,25.8110000000149,images/experiment/57_start.png,350.0,15,1,57,57,57,,,3
5944,0le1c,0.106,-0.19708044114498913,26.595,images/experiment/pair_64_57_out_tensor(0.5000).png,296.0,16,1,64_57_0.5,64_57_,64,57,0.5,38
4344,0le1c,0.11,-0.17925976829176365,45.9519999999553,images/experiment/pair_92_64_out_tensor(0.3333).png,276.0,17,1,92_64_0.33,92_64_,92,64,0.33,43
3344,0le1c,0.118,-0.14361842258531268,39.27,images/experiment/41_start.png,292.0,18,1,41,41,41,,,2
6744,0le1c,0.076,-0.33073548754418025,26.6729999999702,images/experiment/pair_37_101_out_tensor(0.6667).png,397.0,19,1,37_101_0.67,37_101_,37,101,0.67,33
3144,0le1c,0.04,-0.49112154322320956,29.5560000000149,images/experiment/pair_5_41_out_tensor(0.6667).png,156.0,20,1,5_41_0.67,5_41_,5,41,0.67,9
5744,0le1c,0.074,-0.33964582397079296,20.43,images/experiment/pair_92_57_out_tensor(0.6667).png,398.0,21,1,92_57_0.67,92_57_,92,57,0.67,42
944,0le1c,0.07,-0.35746649682401843,28.0139999999851,images/experiment/pair_92_64_out_tensor(0.5000).png,76.0,22,1,92_64_0.5,92_64_,92,64,0.5,44
8744,0le1c,0.098,-0.2327217868514401,22.315,images/experiment/pair_37_41_out_tensor(0.6667).png,255.0,23,1,37_41_0.67,37_41_,37,41,0.67,21
8944,0le1c,0.068,-0.3663768332506312,23.622000000029796,images/experiment/37_start.png,372.0,24,1,37,37,37,,,1
5344,0le1c,0.034,-0.5178525525030477,25.192000000029797,images/experiment/pair_37_101_out_tensor(0.3333).png,383.0,25,1,37_101_0.33,37_101_,37,101,0.33,31
10144,0le1c,0.088,-0.2772734689845038,20.045,images/experiment/pair_92_57_out_tensor(0.3333).png,283.0,26,1,92_57_0.33,92_57_,92,57,0.33,40
144,0le1c,0.056,-0.4198388518103076,24.433000000044704,images/experiment/64_start.png,344.0,27,1,64,64,64,,,4
4544,0le1c,0.1,-0.22381145042482734,16.858000000044704,images/experiment/pair_5_101_out_tensor(0.5000).png,308.0,28,1,5_101_0.5,5_101_,5,101,0.5,17
2344,0le1c,0.112,-0.1703494318651509,20.687999999970202,images/experiment/pair_5_64_out_tensor(0.5000).png,312.0,29,1,5_64_0.5,5_64_,5,64,0.5,11
2144,0le1c,0.104,-0.20599077757160186,20.374000000059606,images/experiment/pair_92_64_out_tensor(0.6667).png,396.0,30,1,92_64_0.67,92_64_,92,64,0.67,45
8544,0le1c,0.092,-0.2594527961312783,24.335,images/experiment/pair_101_92_out_tensor(0.5000).png,478.0,31,1,101_92_0.5,101_92_,101,92,0.5,53
3944,0le1c,0.116,-0.15252875901192542,26.9010000000149,images/experiment/pair_92_57_out_tensor(0.5000).png,197.0,32,1,92_57_0.5,92_57_,92,57,0.5,41
1344,0le1c,0.082,-0.304004478264342,27.288000000044704,images/experiment/pair_5_64_out_tensor(0.3333).png,360.0,33,1,5_64_0.33,5_64_,5,64,0.33,10
4944,0le1c,0.074,-0.33964582397079296,32.0320000000298,images/experiment/pair_101_64_out_tensor(0.5000).png,446.0,34,1,101_64_0.5,101_64_,101,64,0.5,50
6344,0le1c,0.08,-0.3129148146909547,21.3929999999702,images/experiment/pair_37_41_out_tensor(0.5000).png,60.0,35,1,37_41_0.5,37_41_,37,41,0.5,20
9744,0le1c,0.07,-0.35746649682401843,23.7139999999851,images/experiment/pair_101_92_out_tensor(0.3333).png,325.0,36,1,101_92_0.33,101_92_,101,92,0.33,52
7544,0le1c,0.104,-0.20599077757160186,22.151999999955297,images/experiment/pair_37_57_out_tensor(0.5000).png,238.0,37,1,37_57_0.5,37_57_,37,57,0.5,23
6544,0le1c,0.0,-0.6693282717554644,91.1,images/experiment/pair_64_41_out_tensor(0.5000).png,159.0,38,1,64_41_0.5,64_41_,64,41,0.5,35
344,0le1c,0.0,-0.6693282717554644,39.4939999999851,images/experiment/pair_64_41_out_tensor(0.3333).png,319.0,39,1,64_41_0.33,64_41_,64,41,0.33,34
2544,0le1c,0.28,0.5781188279703193,25.808999999985097,images/experiment/pair_101_57_out_tensor(0.3333).png,427.0,40,1,101_57_0.33,101_57_,101,57,0.33,46
7944,0le1c,0.606,2.030503665508196,23.958000000044702,images/experiment/pair_5_41_out_tensor(0.5000).png,316.0,41,1,5_41_0.5,5_41_,5,41,0.5,8
9944,0le1c,0.0,-0.6693282717554644,21.305,images/experiment/pair_5_64_out_tensor(0.6667).png,85.0,42,1,5_64_0.67,5_64_,5,64,0.67,12
4144,0le1c,0.0,-0.6693282717554644,25.733999999985098,images/experiment/pair_101_64_out_tensor(0.6667).png,260.0,43,1,101_64_0.67,101_64_,101,64,0.67,51
2944,0le1c,0.0,-0.6693282717554644,23.415,images/experiment/pair_64_57_out_tensor(0.3333).png,4.0,44,1,64_57_0.33,64_57_,64,57,0.33,37
5544,0le1c,0.052,-0.43765952466353314,47.11300000004471,images/experiment/pair_5_92_out_tensor(0.6667).png,304.0,45,1,5_92_0.67,5_92_,5,92,0.67,15
6944,0le1c,0.094,-0.25054245970466554,24.405,images/experiment/pair_101_64_out_tensor(0.3333).png,223.0,46,1,101_64_0.33,101_64_,101,64,0.33,49
7144,0le1c,0.062,-0.39310784253046943,32.755,images/experiment/92_start.png,452.0,47,1,92,92,92,,,5
2744,0le1c,0.052,-0.43765952466353314,37.638000000044705,images/experiment/pair_37_64_out_tensor(0.5000).png,475.0,48,1,37_64_0.5,37_64_,37,64,0.5,26
8144,0le1c,0.038,-0.5000318796498223,27.4460000000149,images/experiment/pair_37_101_out_tensor(0.5000).png,219.0,49,1,37_101_0.5,37_101_,37,101,0.5,32
3744,0le1c,0.0,-0.6693282717554644,31.571999999955295,images/experiment/pair_64_41_out_tensor(0.6667).png,472.0,50,1,64_41_0.67,64_41_,64,41,0.67,36
9544,0le1c,0.05,-0.44656986109014585,32.7340000000596,images/experiment/pair_37_92_out_tensor(0.6667).png,324.0,51,1,37_92_0.67,37_92_,37,92,0.67,30
7344,0le1c,0.296,0.6494015193832212,28.773000000044703,images/experiment/pair_5_101_out_tensor(0.6667).png,228.0,52,1,5_101_0.67,5_101_,5,101,0.67,18
10744,0le1c,0.08,-0.3129148146909547,32.95099999994039,images/experiment/pair_37_92_out_tensor(0.3333).png,400.0,53,1,37_92_0.33,37_92_,37,92,0.33,28
10544,0le1c,0.07,-0.35746649682401843,24.2760000000149,images/experiment/pair_37_41_out_tensor(0.3333).png,407.0,54,1,37_41_0.33,37_41_,37,41,0.33,19
10944,0le1c,0.07,-0.35746649682401843,35.7729999999702,images/experiment/pair_101_57_out_tensor(0.5000).png,152.0,55,1,101_57_0.5,101_57_,101,57,0.5,47
1744,0le1c,0.04,-0.49112154322320956,34.585,images/experiment/pair_37_57_out_tensor(0.6667).png,41.0,56,1,37_57_0.67,37_57_,37,57,0.67,24
1544,0le1c,0.062,-0.39310784253046943,26.2129999999702,images/experiment/pair_37_64_out_tensor(0.3333).png,271.0,57,1,37_64_0.33,37_64_,37,64,0.33,25
7744,0le1c,1.0,3.785839941550906,32.034000000059606,images/experiment/5_start.png,323.0,58,1,5,5,5,,,0
744,0le1c,0.0,-0.6693282717554644,23.3110000000149,images/experiment/pair_5_92_out_tensor(0.3333).png,50.0,59,1,5_92_0.33,5_92_,5,92,0.33,13
1145,0le1c,0.322,0.7652358929291868,34.3679999999702,images/experiment/pair_5_101_out_tensor(0.3333).png,340.0,192,2,5_101_0.33,5_101_,5,101,0.33,16
9945,0le1c,0.0,-0.6693282717554644,25.0489999999851,images/experiment/pair_5_64_out_tensor(0.6667).png,280.0,193,2,5_64_0.67,5_64_,5,64,0.67,12
9745,0le1c,0.0,-0.6693282717554644,14.993000000044704,images/experiment/pair_101_92_out_tensor(0.3333).png,61.0,194,2,101_92_0.33,101_92_,101,92,0.33,52
1345,0le1c,0.854,3.1353853824081757,29.7139999999851,images/experiment/pair_5_64_out_tensor(0.3333).png,489.0,195,2,5_64_0.33,5_64_,5,64,0.33,10
3745,0le1c,0.04,-0.49112154322320956,23.865,images/experiment/pair_64_41_out_tensor(0.6667).png,265.0,196,2,64_41_0.67,64_41_,64,41,0.67,36
4145,0le1c,0.034,-0.5178525525030477,20.5329999999702,images/experiment/pair_101_64_out_tensor(0.6667).png,186.0,197,2,101_64_0.67,101_64_,101,64,0.67,51
9145,0le1c,0.17,0.08805032450661857,47.199000000059605,images/experiment/pair_5_92_out_tensor(0.5000).png,497.0,198,2,5_92_0.5,5_92_,5,92,0.5,14
8745,0le1c,0.052,-0.43765952466353314,22.47,images/experiment/pair_37_41_out_tensor(0.6667).png,86.0,199,2,37_41_0.67,37_41_,37,41,0.67,21
5345,0le1c,0.034,-0.5178525525030477,29.4710000000149,images/experiment/pair_37_101_out_tensor(0.3333).png,303.0,200,2,37_101_0.33,37_101_,37,101,0.33,31
6745,0le1c,0.05,-0.44656986109014585,29.012000000029797,images/experiment/pair_37_101_out_tensor(0.6667).png,108.0,201,2,37_101_0.67,37_101_,37,101,0.67,33
145,0le1c,0.058,-0.4109285153836949,34.3010000000149,images/experiment/64_start.png,451.0,202,2,64,64,64,,,4
10545,0le1c,0.046,-0.4643905339433713,27.346999999955298,images/experiment/pair_37_41_out_tensor(0.3333).png,59.0,203,2,37_41_0.33,37_41_,37,41,0.33,19
6145,0le1c,0.026,-0.5534938982094988,36.635,images/experiment/pair_37_92_out_tensor(0.5000).png,21.0,204,2,37_92_0.5,37_92_,37,92,0.5,29
545,0le1c,0.044,-0.4733008703699841,25.566999999955296,images/experiment/pair_37_57_out_tensor(0.3333).png,88.0,205,2,37_57_0.33,37_57_,37,57,0.33,22
3945,0le1c,0.04,-0.49112154322320956,28.777000000029798,images/experiment/pair_92_57_out_tensor(0.5000).png,371.0,206,2,92_57_0.5,92_57_,92,57,0.5,41
9545,0le1c,0.034,-0.5178525525030477,22.773999999985097,images/experiment/pair_37_92_out_tensor(0.6667).png,100.0,207,2,37_92_0.67,37_92_,37,92,0.67,30
7545,0le1c,0.05,-0.44656986109014585,25.265,images/experiment/pair_37_57_out_tensor(0.5000).png,189.0,208,2,37_57_0.5,37_57_,37,57,0.5,23
4345,0le1c,0.064,-0.38419750610385667,33.1370000000298,images/experiment/pair_92_64_out_tensor(0.3333).png,141.0,209,2,92_64_0.33,92_64_,92,64,0.33,43
5745,0le1c,0.082,-0.304004478264342,58.3310000000149,images/experiment/pair_92_57_out_tensor(0.6667).png,135.0,210,2,92_57_0.67,92_57_,92,57,0.67,42
4945,0le1c,0.11,-0.17925976829176365,24.630999999940396,images/experiment/pair_101_64_out_tensor(0.5000).png,301.0,211,2,101_64_0.5,101_64_,101,64,0.5,50
1945,0le1c,0.082,-0.304004478264342,37.335,images/experiment/pair_101_92_out_tensor(0.6667).png,307.0,212,2,101_92_0.67,101_92_,101,92,0.67,54
2745,0le1c,0.064,-0.38419750610385667,20.83,images/experiment/pair_37_64_out_tensor(0.5000).png,329.0,213,2,37_64_0.5,37_64_,37,64,0.5,26
10745,0le1c,0.07,-0.35746649682401843,22.016000000014902,images/experiment/pair_37_92_out_tensor(0.3333).png,422.0,214,2,37_92_0.33,37_92_,37,92,0.33,28
5945,0le1c,0.056,-0.4198388518103076,25.267000000029796,images/experiment/pair_64_57_out_tensor(0.5000).png,198.0,215,2,64_57_0.5,64_57_,64,57,0.5,38
4545,0le1c,0.798,2.885895962463019,32.4989999999851,images/experiment/pair_5_101_out_tensor(0.5000).png,20.0,216,2,5_101_0.5,5_101_,5,101,0.5,17
8145,0le1c,0.064,-0.38419750610385667,20.5260000000149,images/experiment/pair_37_101_out_tensor(0.5000).png,166.0,217,2,37_101_0.5,37_101_,37,101,0.5,32
7745,0le1c,1.0,3.785839941550906,24.115,images/experiment/5_start.png,23.0,218,2,5,5,5,,,0
8945,0le1c,0.47,1.4246007884985297,24.651999999955297,images/experiment/37_start.png,386.0,219,2,37,37,37,,,1
3545,0le1c,0.782,2.814613271050117,29.933999999985097,images/experiment/pair_5_41_out_tensor(0.3333).png,104.0,220,2,5_41_0.33,5_41_,5,41,0.33,7
5545,0le1c,0.064,-0.38419750610385667,22.6310000000149,images/experiment/pair_5_92_out_tensor(0.6667).png,266.0,221,2,5_92_0.67,5_92_,5,92,0.67,15
3345,0le1c,0.406,1.139470022846922,44.096000000014904,images/experiment/41_start.png,130.0,222,2,41,41,41,,,2
945,0le1c,0.02,-0.580224907489337,30.471999999955298,images/experiment/pair_92_64_out_tensor(0.5000).png,78.0,223,2,92_64_0.5,92_64_,92,64,0.5,44
10345,0le1c,0.008,-0.6336869260490134,30.3310000000149,images/experiment/101_start.png,149.0,224,2,101,101,101,,,6
1545,0le1c,0.026,-0.5534938982094988,149.0490000000596,images/experiment/pair_37_64_out_tensor(0.3333).png,65.0,225,2,37_64_0.33,37_64_,37,64,0.33,25
10945,0le1c,0.046,-0.4643905339433713,35.9189999999851,images/experiment/pair_101_57_out_tensor(0.5000).png,226.0,226,2,101_57_0.5,101_57_,101,57,0.5,47
8545,0le1c,0.05,-0.44656986109014585,35.2339999999851,images/experiment/pair_101_92_out_tensor(0.5000).png,412.0,227,2,101_92_0.5,101_92_,101,92,0.5,53
9345,0le1c,0.064,-0.38419750610385667,29.628999999985098,images/experiment/pair_37_64_out_tensor(0.6667).png,110.0,228,2,37_64_0.67,37_64_,37,64,0.67,27
8345,0le1c,0.404,1.1305596864203091,45.1789999999851,images/experiment/57_start.png,137.0,229,2,57,57,57,,,3
2345,0le1c,0.412,1.1662010321267602,18.1760000000149,images/experiment/pair_5_64_out_tensor(0.5000).png,127.0,230,2,5_64_0.5,5_64_,5,64,0.5,11
2545,0le1c,0.062,-0.39310784253046943,24.97,images/experiment/pair_101_57_out_tensor(0.3333).png,268.0,231,2,101_57_0.33,101_57_,101,57,0.33,46
1745,0le1c,0.04,-0.49112154322320956,30.7939999999851,images/experiment/pair_37_57_out_tensor(0.6667).png,328.0,232,2,37_57_0.67,37_57_,37,57,0.67,24
6345,0le1c,0.028,-0.544583561782886,31.7139999999851,images/experiment/pair_37_41_out_tensor(0.5000).png,258.0,233,2,37_41_0.5,37_41_,37,41,0.5,20
7145,0le1c,0.038,-0.5000318796498223,35.23,images/experiment/92_start.png,402.0,234,2,92,92,92,,,5
745,0le1c,0.942,3.5274401851791364,36.9339999999851,images/experiment/pair_5_92_out_tensor(0.3333).png,467.0,235,2,5_92_0.33,5_92_,5,92,0.33,13
10145,0le1c,0.062,-0.39310784253046943,32.2739999999851,images/experiment/pair_92_57_out_tensor(0.3333).png,401.0,236,2,92_57_0.33,92_57_,92,57,0.33,40
4745,0le1c,0.044,-0.4733008703699841,32.7510000000149,images/experiment/pair_101_57_out_tensor(0.6667).png,63.0,237,2,101_57_0.67,101_57_,101,57,0.67,48
7345,0le1c,0.038,-0.5000318796498223,26.8110000000149,images/experiment/pair_5_101_out_tensor(0.6667).png,72.0,238,2,5_101_0.67,5_101_,5,101,0.67,18
7945,0le1c,0.77,2.761151252490441,28.695,images/experiment/pair_5_41_out_tensor(0.5000).png,341.0,239,2,5_41_0.5,5_41_,5,41,0.5,8
2145,0le1c,0.07,-0.35746649682401843,62.0739999999851,images/experiment/pair_92_64_out_tensor(0.6667).png,57.0,240,2,92_64_0.67,92_64_,92,64,0.67,45
2945,0le1c,0.044,-0.4733008703699841,33.9119999999553,images/experiment/pair_64_57_out_tensor(0.3333).png,115.0,241,2,64_57_0.33,64_57_,64,57,0.33,37
6945,0le1c,0.07,-0.35746649682401843,115.5839999999851,images/experiment/pair_101_64_out_tensor(0.3333).png,498.0,242,2,101_64_0.33,101_64_,101,64,0.33,49
345,0le1c,0.05,-0.44656986109014585,25.27,images/experiment/pair_64_41_out_tensor(0.3333).png,93.0,243,2,64_41_0.33,64_41_,64,41,0.33,34
6545,0le1c,0.116,-0.15252875901192542,29.472999999970202,images/experiment/pair_64_41_out_tensor(0.5000).png,302.0,244,2,64_41_0.5,64_41_,64,41,0.5,35
3145,0le1c,0.136,-0.06342539474579802,27.915,images/experiment/pair_5_41_out_tensor(0.6667).png,278.0,245,2,5_41_0.67,5_41_,5,41,0.67,9
5145,0le1c,0.08,-0.3129148146909547,29.15,images/experiment/pair_64_57_out_tensor(0.6667).png,179.0,246,2,64_57_0.67,64_57_,64,57,0.67,39
7994,0xmq6,0.938,1.6102792440148757,35.425,images/experiment/pair_5_41_out_tensor(0.5000).png,448.0,5,1,5_41_0.5,5_41_,5,41,0.5,8
6194,0xmq6,0.478,0.012190950225350891,40.26,images/experiment/pair_37_92_out_tensor(0.5000).png,71.0,6,1,37_92_0.5,37_92_,37,92,0.5,29
3394,0xmq6,0.26,-0.7451639368314239,29.77600000023842,images/experiment/41_start.png,442.0,7,1,41,41,41,,,2
2794,0xmq6,0.488,0.04693200009034056,23.54299999952316,images/experiment/pair_37_64_out_tensor(0.5000).png,20.0,8,1,37_64_0.5,37_64_,37,64,0.5,26
7594,0xmq6,0.726,0.8737689868770947,21.23200000047684,images/experiment/pair_37_57_out_tensor(0.5000).png,117.0,9,1,37_57_0.5,37_57_,37,57,0.5,23
8994,0xmq6,0.792,1.1030599159860266,26.218999999761582,images/experiment/37_start.png,362.0,10,1,37,37,37,,,1
9594,0xmq6,0.926,1.5685899841768882,23.45100000023842,images/experiment/pair_37_92_out_tensor(0.6667).png,49.0,11,1,37_92_0.67,37_92_,37,92,0.67,30
1594,0xmq6,0.28,-0.6756818371014446,29.86,images/experiment/pair_37_64_out_tensor(0.3333).png,96.0,12,1,37_64_0.33,37_64_,37,64,0.33,25
2594,0xmq6,0.512,0.13031051976631577,23.81100000023842,images/experiment/pair_101_57_out_tensor(0.3333).png,427.0,13,1,101_57_0.33,101_57_,101,57,0.33,46
3194,0xmq6,0.872,1.3809883149059439,18.79,images/experiment/pair_5_41_out_tensor(0.6667).png,149.0,14,1,5_41_0.67,5_41_,5,41,0.67,9
594,0xmq6,0.394,-0.27963386864056233,29.57600000023842,images/experiment/pair_37_57_out_tensor(0.3333).png,64.0,15,1,37_57_0.33,37_57_,37,57,0.33,22
4394,0xmq6,0.788,1.0891634960400307,18.685,images/experiment/pair_92_64_out_tensor(0.3333).png,143.0,16,1,92_64_0.33,92_64_,92,64,0.33,43
4594,0xmq6,1.0,1.8256737531778118,23.91,images/experiment/pair_5_101_out_tensor(0.5000).png,175.0,17,1,5_101_0.5,5_101_,5,101,0.5,17
4794,0xmq6,1.0,1.8256737531778118,19.812999999523164,images/experiment/pair_101_57_out_tensor(0.6667).png,50.0,18,1,101_57_0.67,101_57_,101,57,0.67,48
2194,0xmq6,0.08,-1.370502834401238,24.395,images/experiment/pair_92_64_out_tensor(0.6667).png,480.0,19,1,92_64_0.67,92_64_,92,64,0.67,45
9394,0xmq6,0.184,-1.0091959158053454,26.371000000238418,images/experiment/pair_37_64_out_tensor(0.6667).png,57.0,20,1,37_64_0.67,37_64_,37,64,0.67,27
9794,0xmq6,0.206,-0.9327656061023681,19.41399999976158,images/experiment/pair_101_92_out_tensor(0.3333).png,194.0,21,1,101_92_0.33,101_92_,101,92,0.33,52
10194,0xmq6,0.744,0.9363028766340761,19.78099999904633,images/experiment/pair_92_57_out_tensor(0.3333).png,293.0,22,1,92_57_0.33,92_57_,92,57,0.33,40
3594,0xmq6,0.848,1.2976097952299688,23.513000000715255,images/experiment/pair_5_41_out_tensor(0.3333).png,314.0,23,1,5_41_0.33,5_41_,5,41,0.33,7
1394,0xmq6,0.956,1.672813133771857,23.026999999284744,images/experiment/pair_5_64_out_tensor(0.3333).png,205.0,24,1,5_64_0.33,5_64_,5,64,0.33,10
10594,0xmq6,0.332,-0.4950283778034983,18.541000000238416,images/experiment/pair_37_41_out_tensor(0.3333).png,320.0,25,1,37_41_0.33,37_41_,37,41,0.33,19
3994,0xmq6,0.566,0.31791218903726,44.93100000023842,images/experiment/pair_92_57_out_tensor(0.5000).png,342.0,26,1,92_57_0.5,92_57_,92,57,0.5,41
4994,0xmq6,0.268,-0.7173710969394322,18.58899999976158,images/experiment/pair_101_64_out_tensor(0.5000).png,432.0,27,1,101_64_0.5,101_64_,101,64,0.5,50
3794,0xmq6,0.374,-0.3491159683705417,25.924000000953676,images/experiment/pair_64_41_out_tensor(0.6667).png,308.0,28,1,64_41_0.67,64_41_,64,41,0.67,36
2394,0xmq6,0.112,-1.2593314748332711,19.738999999761578,images/experiment/pair_5_64_out_tensor(0.5000).png,126.0,29,1,5_64_0.5,5_64_,5,64,0.5,11
8394,0xmq6,0.296,-0.6200961573174611,21.73799999952316,images/experiment/57_start.png,88.0,30,1,57,57,57,,,3
5194,0xmq6,0.528,0.18589619955029923,24.68899999976158,images/experiment/pair_64_57_out_tensor(0.6667).png,78.0,31,1,64_57_0.67,64_57_,64,57,0.67,39
194,0xmq6,0.016,-1.592845553537172,19.113000000715257,images/experiment/64_start.png,483.0,32,1,64,64,64,,,4
7794,0xmq6,0.896,1.4643668345819192,23.545,images/experiment/5_start.png,62.0,33,1,5,5,5,,,0
8794,0xmq6,0.37,-0.36301238831653754,24.39,images/experiment/pair_37_41_out_tensor(0.6667).png,288.0,34,1,37_41_0.67,37_41_,37,41,0.67,21
1994,0xmq6,0.478,0.012190950225350891,25.593999999761582,images/experiment/pair_101_92_out_tensor(0.6667).png,141.0,35,1,101_92_0.67,101_92_,101,92,0.67,54
7394,0xmq6,0.698,0.7764940472551236,24.36399999976158,images/experiment/pair_5_101_out_tensor(0.6667).png,180.0,36,1,5_101_0.67,5_101_,5,101,0.67,18
6394,0xmq6,0.1,-1.3010207346712586,30.178000000715254,images/experiment/pair_37_41_out_tensor(0.5000).png,219.0,37,1,37_41_0.5,37_41_,37,41,0.5,20
9994,0xmq6,0.34,-0.46723553791150657,20.41399999976158,images/experiment/pair_5_64_out_tensor(0.6667).png,103.0,38,1,5_64_0.67,5_64_,5,64,0.67,12
5394,0xmq6,0.274,-0.6965264670204384,24.492000000476843,images/experiment/pair_37_101_out_tensor(0.3333).png,99.0,39,1,37_101_0.33,37_101_,37,101,0.33,31
10794,0xmq6,0.358,-0.40470164815452514,19.476000000238415,images/experiment/pair_37_92_out_tensor(0.3333).png,46.0,40,1,37_92_0.33,37_92_,37,92,0.33,28
394,0xmq6,0.356,-0.4116498581275231,22.056999999284745,images/experiment/pair_64_41_out_tensor(0.3333).png,335.0,41,1,64_41_0.33,64_41_,64,41,0.33,34
5994,0xmq6,0.5,0.08862125992832817,22.289000000953674,images/experiment/pair_64_57_out_tensor(0.5000).png,420.0,42,1,64_57_0.5,64_57_,64,57,0.5,38
9194,0xmq6,0.912,1.5199525143659025,20.05099999904633,images/experiment/pair_5_92_out_tensor(0.5000).png,326.0,43,1,5_92_0.5,5_92_,5,92,0.5,14
5594,0xmq6,0.984,1.7700880733938282,22.19399999976158,images/experiment/pair_5_92_out_tensor(0.6667).png,107.0,44,1,5_92_0.67,5_92_,5,92,0.67,15
1794,0xmq6,0.522,0.16505156963130543,18.605,images/experiment/pair_37_57_out_tensor(0.6667).png,100.0,45,1,37_57_0.67,37_57_,37,57,0.67,24
794,0xmq6,0.78,1.061370656148039,19.192999999523167,images/experiment/pair_5_92_out_tensor(0.3333).png,44.0,46,1,5_92_0.33,5_92_,5,92,0.33,13
994,0xmq6,0.316,-0.5506140575874817,22.393999999761583,images/experiment/pair_92_64_out_tensor(0.5000).png,311.0,47,1,92_64_0.5,92_64_,92,64,0.5,44
6594,0xmq6,0.636,0.5610995380921877,106.55700000047683,images/experiment/pair_64_41_out_tensor(0.5000).png,251.0,48,1,64_41_0.5,64_41_,64,41,0.5,35
10394,0xmq6,0.286,-0.6548372071824508,16.777999999523164,images/experiment/101_start.png,35.0,49,1,101,101,101,,,6
8594,0xmq6,0.644,0.5888923779841794,21.461000000238418,images/experiment/pair_101_92_out_tensor(0.5000).png,211.0,50,1,101_92_0.5,101_92_,101,92,0.5,53
10994,0xmq6,0.37,-0.36301238831653754,18.995,images/experiment/pair_101_57_out_tensor(0.5000).png,467.0,51,1,101_57_0.5,101_57_,101,57,0.5,47
1194,0xmq6,0.882,1.4157293647709335,23.74700000047684,images/experiment/pair_5_101_out_tensor(0.3333).png,409.0,52,1,5_101_0.33,5_101_,5,101,0.33,16
6794,0xmq6,0.188,-0.9952994958593495,21.94399999976158,images/experiment/pair_37_101_out_tensor(0.6667).png,173.0,53,1,37_101_0.67,37_101_,37,101,0.67,33
7194,0xmq6,0.638,0.5680477480651857,17.86,images/experiment/92_start.png,112.0,54,1,92,92,92,,,5
6994,0xmq6,0.476,0.005242740252352958,20.282999999523167,images/experiment/pair_101_64_out_tensor(0.3333).png,296.0,55,1,101_64_0.33,101_64_,101,64,0.33,49
2994,0xmq6,0.266,-0.7243193069124301,28.705,images/experiment/pair_64_57_out_tensor(0.3333).png,281.0,56,1,64_57_0.33,64_57_,64,57,0.33,37
8194,0xmq6,0.238,-0.8215942465344012,21.82,images/experiment/pair_37_101_out_tensor(0.5000).png,316.0,57,1,37_101_0.5,37_101_,37,101,0.5,32
5794,0xmq6,0.758,0.9849403464450617,20.606999999284746,images/experiment/pair_92_57_out_tensor(0.6667).png,321.0,58,1,92_57_0.67,92_57_,92,57,0.67,42
4194,0xmq6,0.256,-0.7590603567774198,23.24,images/experiment/pair_101_64_out_tensor(0.6667).png,259.0,59,1,101_64_0.67,101_64_,101,64,0.67,51
3995,0xmq6,0.644,0.5888923779841794,28.083000000715256,images/experiment/pair_92_57_out_tensor(0.5000).png,156.0,283,2,92_57_0.5,92_57_,92,57,0.5,41
1795,0xmq6,0.484,0.03303558014434469,19.44399999976158,images/experiment/pair_37_57_out_tensor(0.6667).png,408.0,284,2,37_57_0.67,37_57_,37,57,0.67,24
6995,0xmq6,0.16,-1.0925744354813207,19.261999999284743,images/experiment/pair_101_64_out_tensor(0.3333).png,197.0,285,2,101_64_0.33,101_64_,101,64,0.33,49
6395,0xmq6,0.19,-0.9883512858863516,20.296000000238415,images/experiment/pair_37_41_out_tensor(0.5000).png,45.0,286,2,37_41_0.5,37_41_,37,41,0.5,20
6195,0xmq6,0.244,-0.8007496166154074,22.385,images/experiment/pair_37_92_out_tensor(0.5000).png,477.0,287,2,37_92_0.5,37_92_,37,92,0.5,29
7995,0xmq6,0.902,1.485211464500913,23.86399999976158,images/experiment/pair_5_41_out_tensor(0.5000).png,132.0,288,2,5_41_0.5,5_41_,5,41,0.5,8
1595,0xmq6,0.452,-0.07813577942362225,20.26899999976158,images/experiment/pair_37_64_out_tensor(0.3333).png,7.0,289,2,37_64_0.33,37_64_,37,64,0.33,25
7795,0xmq6,0.786,1.0822152860670327,17.163000000715257,images/experiment/5_start.png,312.0,290,2,5,5,5,,,0
2595,0xmq6,0.34,-0.46723553791150657,22.555999999046332,images/experiment/pair_101_57_out_tensor(0.3333).png,446.0,291,2,101_57_0.33,101_57_,101,57,0.33,46
8795,0xmq6,0.0,-1.6484312333211553,25.92099999904633,images/experiment/pair_37_41_out_tensor(0.6667).png,24.0,292,2,37_41_0.67,37_41_,37,41,0.67,21
10395,0xmq6,0.196,-0.9675066559673579,22.93100000023842,images/experiment/101_start.png,495.0,293,2,101,101,101,,,6
4795,0xmq6,1.0,1.8256737531778118,22.03700000047684,images/experiment/pair_101_57_out_tensor(0.6667).png,455.0,294,2,101_57_0.67,101_57_,101,57,0.67,48
10595,0xmq6,0.47,-0.015601889666640844,18.74899999976158,images/experiment/pair_37_41_out_tensor(0.3333).png,254.0,295,2,37_41_0.33,37_41_,37,41,0.33,19
195,0xmq6,0.182,-1.0161441257783435,23.11099999904633,images/experiment/64_start.png,209.0,296,2,64,64,64,,,4
995,0xmq6,0.094,-1.3218653645902525,20.10700000047684,images/experiment/pair_92_64_out_tensor(0.5000).png,246.0,297,2,92_64_0.5,92_64_,92,64,0.5,44
10995,0xmq6,0.818,1.1933866456349997,28.45899999976158,images/experiment/pair_101_57_out_tensor(0.5000).png,336.0,298,2,101_57_0.5,101_57_,101,57,0.5,47
795,0xmq6,0.978,1.7492434434748345,22.926000000238417,images/experiment/pair_5_92_out_tensor(0.3333).png,238.0,299,2,5_92_0.33,5_92_,5,92,0.33,13
3595,0xmq6,0.822,1.2072830655809956,19.905,images/experiment/pair_5_41_out_tensor(0.3333).png,315.0,300,2,5_41_0.33,5_41_,5,41,0.33,7
9195,0xmq6,0.716,0.8390279370121051,22.054000000953675,images/experiment/pair_5_92_out_tensor(0.5000).png,27.0,301,2,5_92_0.5,5_92_,5,92,0.5,14
7595,0xmq6,0.528,0.18589619955029923,22.23899999976158,images/experiment/pair_37_57_out_tensor(0.5000).png,188.0,302,2,37_57_0.5,37_57_,37,57,0.5,23
1995,0xmq6,0.334,-0.48808016783050034,17.675,images/experiment/pair_101_92_out_tensor(0.6667).png,76.0,303,2,101_92_0.67,101_92_,101,92,0.67,54
8195,0xmq6,0.128,-1.2037457950492876,27.62,images/experiment/pair_37_101_out_tensor(0.5000).png,39.0,304,2,37_101_0.5,37_101_,37,101,0.5,32
7195,0xmq6,0.848,1.2976097952299688,19.726000000238415,images/experiment/92_start.png,298.0,305,2,92,92,92,,,5
2995,0xmq6,0.136,-1.1759529551572958,27.593999999761582,images/experiment/pair_64_57_out_tensor(0.3333).png,3.0,306,2,64_57_0.33,64_57_,64,57,0.33,37
6595,0xmq6,0.092,-1.3288135745632503,18.881000000238416,images/experiment/pair_64_41_out_tensor(0.5000).png,289.0,307,2,64_41_0.5,64_41_,64,41,0.5,35
395,0xmq6,0.08,-1.370502834401238,23.346999999284744,images/experiment/pair_64_41_out_tensor(0.3333).png,465.0,308,2,64_41_0.33,64_41_,64,41,0.33,34
5195,0xmq6,0.674,0.6931155275791484,19.031000000238418,images/experiment/pair_64_57_out_tensor(0.6667).png,105.0,309,2,64_57_0.67,64_57_,64,57,0.67,39
5795,0xmq6,0.902,1.485211464500913,18.366000000238415,images/experiment/pair_92_57_out_tensor(0.6667).png,15.0,310,2,92_57_0.67,92_57_,92,57,0.67,42
9795,0xmq6,0.472,-0.00865367969364291,26.24700000047684,images/experiment/pair_101_92_out_tensor(0.3333).png,28.0,311,2,101_92_0.33,101_92_,101,92,0.33,52
1395,0xmq6,0.734,0.9015618267690865,21.05200000047684,images/experiment/pair_5_64_out_tensor(0.3333).png,220.0,312,2,5_64_0.33,5_64_,5,64,0.33,10
3795,0xmq6,0.244,-0.8007496166154074,18.32,images/experiment/pair_64_41_out_tensor(0.6667).png,190.0,313,2,64_41_0.67,64_41_,64,41,0.67,36
8595,0xmq6,0.554,0.2762229291992724,25.73,images/experiment/pair_101_92_out_tensor(0.5000).png,131.0,314,2,101_92_0.5,101_92_,101,92,0.5,53
7395,0xmq6,0.386,-0.30742670853255405,17.599000000953673,images/experiment/pair_5_101_out_tensor(0.6667).png,445.0,315,2,5_101_0.67,5_101_,5,101,0.67,18
4595,0xmq6,0.424,-0.17541071904559333,18.37,images/experiment/pair_5_101_out_tensor(0.5000).png,396.0,316,2,5_101_0.5,5_101_,5,101,0.5,17
4195,0xmq6,0.11,-1.266279684806269,17.558000000715257,images/experiment/pair_101_64_out_tensor(0.6667).png,438.0,317,2,101_64_0.67,101_64_,101,64,0.67,51
9595,0xmq6,0.548,0.2553782992802786,23.531000000238418,images/experiment/pair_37_92_out_tensor(0.6667).png,319.0,318,2,37_92_0.67,37_92_,37,92,0.67,30
10795,0xmq6,0.374,-0.3491159683705417,20.16200000047684,images/experiment/pair_37_92_out_tensor(0.3333).png,33.0,319,2,37_92_0.33,37_92_,37,92,0.33,28
3395,0xmq6,0.068,-1.4121920942392256,21.165,images/experiment/41_start.png,355.0,320,2,41,41,41,,,2
595,0xmq6,0.086,-1.3496582044822443,20.57099999904633,images/experiment/pair_37_57_out_tensor(0.3333).png,181.0,321,2,37_57_0.33,37_57_,37,57,0.33,22
8995,0xmq6,0.552,0.26927471922627444,28.713999999761583,images/experiment/37_start.png,434.0,322,2,37,37,37,,,1
5995,0xmq6,0.31,-0.5714586875064755,24.59200000047684,images/experiment/pair_64_57_out_tensor(0.5000).png,53.0,323,2,64_57_0.5,64_57_,64,57,0.5,38
2795,0xmq6,0.046,-1.488622403942203,23.457999999523164,images/experiment/pair_37_64_out_tensor(0.5000).png,318.0,324,2,37_64_0.5,37_64_,37,64,0.5,26
4395,0xmq6,0.17,-1.057833385616331,20.045,images/experiment/pair_92_64_out_tensor(0.3333).png,476.0,325,2,92_64_0.33,92_64_,92,64,0.33,43
2195,0xmq6,0.01,-1.6136901834561657,20.187999999523164,images/experiment/pair_92_64_out_tensor(0.6667).png,351.0,326,2,92_64_0.67,92_64_,92,64,0.67,45
8395,0xmq6,0.47,-0.015601889666640844,23.506999999284744,images/experiment/57_start.png,34.0,327,2,57,57,57,,,3
1195,0xmq6,0.62,0.5055138583082042,18.2,images/experiment/pair_5_101_out_tensor(0.3333).png,40.0,328,2,5_101_0.33,5_101_,5,101,0.33,16
2395,0xmq6,0.286,-0.6548372071824508,17.577000000476836,images/experiment/pair_5_64_out_tensor(0.5000).png,48.0,329,2,5_64_0.5,5_64_,5,64,0.5,11
3195,0xmq6,0.702,0.7903904672011195,22.45599999904633,images/experiment/pair_5_41_out_tensor(0.6667).png,498.0,330,2,5_41_0.67,5_41_,5,41,0.67,9
4995,0xmq6,0.104,-1.2871243147252627,17.957000000476835,images/experiment/pair_101_64_out_tensor(0.5000).png,162.0,331,2,101_64_0.5,101_64_,101,64,0.5,50
5395,0xmq6,0.188,-0.9952994958593495,23.01399999976158,images/experiment/pair_37_101_out_tensor(0.3333).png,276.0,332,2,37_101_0.33,37_101_,37,101,0.33,31
6795,0xmq6,0.776,1.047474236202043,36.77299999952316,images/experiment/pair_37_101_out_tensor(0.6667).png,144.0,333,2,37_101_0.67,37_101_,37,101,0.67,33
9395,0xmq6,0.26,-0.7451639368314239,67.895,images/experiment/pair_37_64_out_tensor(0.6667).png,437.0,334,2,37_64_0.67,37_64_,37,64,0.67,27
5595,0xmq6,0.966,1.7075541836368469,21.598000000715256,images/experiment/pair_5_92_out_tensor(0.6667).png,284.0,335,2,5_92_0.67,5_92_,5,92,0.67,15
10195,0xmq6,0.744,0.9363028766340761,29.422999999523164,images/experiment/pair_92_57_out_tensor(0.3333).png,325.0,336,2,92_57_0.33,92_57_,92,57,0.33,40
9995,0xmq6,0.304,-0.5923033174254694,18.787999999523166,images/experiment/pair_5_64_out_tensor(0.6667).png,51.0,337,2,5_64_0.67,5_64_,5,64,0.67,12
452,13qk2,0.81,0.8699758319628799,212.98,images/experiment/pair_37_57_out_tensor(0.3333).png,480.0,5,1,37_57_0.33,37_57_,37,57,0.33,22
5852,13qk2,0.836,0.9796237642479952,28.5,images/experiment/pair_64_57_out_tensor(0.5000).png,284.0,6,1,64_57_0.5,64_57_,64,57,0.5,38
3052,13qk2,0.932,1.3844776680699595,31.88,images/experiment/pair_5_41_out_tensor(0.6667).png,339.0,7,1,5_41_0.67,5_41_,5,41,0.67,9
2052,13qk2,0.66,0.2373916072410607,23.43,images/experiment/pair_92_64_out_tensor(0.6667).png,496.0,8,1,92_64_0.67,92_64_,92,64,0.67,45
4652,13qk2,0.852,1.0470994148849893,20.87,images/experiment/pair_101_57_out_tensor(0.6667).png,326.0,9,1,101_57_0.67,101_57_,101,57,0.67,48
52,13qk2,0.618,0.06026802431895134,23.34,images/experiment/64_start.png,96.0,10,1,64,64,64,,,4
4052,13qk2,0.178,-1.795312368198385,65.71,images/experiment/pair_101_64_out_tensor(0.6667).png,36.0,11,1,101_64_0.67,101_64_,101,64,0.67,51
2452,13qk2,0.476,-0.5385783750843708,33.96,images/experiment/pair_101_57_out_tensor(0.3333).png,73.0,12,1,101_57_0.33,101_57_,101,57,0.33,46
3852,13qk2,0.744,0.5916387730852795,21.17,images/experiment/pair_92_57_out_tensor(0.5000).png,292.0,13,1,92_57_0.5,92_57_,92,57,0.5,41
7652,13qk2,0.864,1.0977061528627348,40.15,images/experiment/5_start.png,233.0,14,1,5,5,5,,,0
8052,13qk2,0.66,0.2373916072410607,25.91,images/experiment/pair_37_101_out_tensor(0.5000).png,399.0,15,1,37_101_0.5,37_101_,37,101,0.5,32
9452,13qk2,0.734,0.5494664914371582,17.27,images/experiment/pair_37_92_out_tensor(0.6667).png,11.0,16,1,37_92_0.67,37_92_,37,92,0.67,30
3452,13qk2,0.918,1.3254364737625897,19.73,images/experiment/pair_5_41_out_tensor(0.3333).png,205.0,17,1,5_41_0.33,5_41_,5,41,0.33,7
252,13qk2,0.238,-1.5422786783096574,26.62,images/experiment/pair_64_41_out_tensor(0.3333).png,49.0,18,1,64_41_0.33,64_41_,64,41,0.33,34
1652,13qk2,0.822,0.9205825699406255,44.51,images/experiment/pair_37_57_out_tensor(0.6667).png,436.0,19,1,37_57_0.67,37_57_,37,57,0.67,24
1052,13qk2,0.884,1.1820507161589773,32.25,images/experiment/pair_5_101_out_tensor(0.3333).png,123.0,20,1,5_101_0.33,5_101_,5,101,0.33,16
6252,13qk2,0.392,-0.8928255409285896,25.39,images/experiment/pair_37_41_out_tensor(0.5000).png,392.0,21,1,37_41_0.5,37_41_,37,41,0.5,20
10452,13qk2,0.812,0.8784102882925041,29.18,images/experiment/pair_37_41_out_tensor(0.3333).png,258.0,22,1,37_41_0.33,37_41_,37,41,0.33,19
10652,13qk2,0.516,-0.3698892484918857,35.14,images/experiment/pair_37_92_out_tensor(0.3333).png,201.0,23,1,37_92_0.33,37_92_,37,92,0.33,28
2652,13qk2,0.256,-1.466368571343039,30.99,images/experiment/pair_37_64_out_tensor(0.5000).png,69.0,24,1,37_64_0.5,37_64_,37,64,0.5,26
7252,13qk2,0.63,0.11087476229669688,26.2,images/experiment/pair_5_101_out_tensor(0.6667).png,202.0,25,1,5_101_0.67,5_101_,5,101,0.67,18
2252,13qk2,0.758,0.6506799673926492,51.03,images/experiment/pair_5_64_out_tensor(0.5000).png,297.0,26,1,5_64_0.5,5_64_,5,64,0.5,11
10252,13qk2,0.782,0.7518934433481403,232.23,images/experiment/101_start.png,493.0,27,1,101,101,101,,,6
10052,13qk2,0.56,-0.1843312092401521,37.82,images/experiment/pair_92_57_out_tensor(0.3333).png,430.0,28,1,92_57_0.33,92_57_,92,57,0.33,40
6852,13qk2,0.714,0.46512192814091563,13.91,images/experiment/pair_101_64_out_tensor(0.3333).png,293.0,29,1,101_64_0.33,101_64_,101,64,0.33,49
5452,13qk2,0.816,0.8952792009517526,15.02,images/experiment/pair_5_92_out_tensor(0.6667).png,461.0,30,1,5_92_0.67,5_92_,5,92,0.67,15
7852,13qk2,0.92,1.333870930092214,40.3,images/experiment/pair_5_41_out_tensor(0.5000).png,487.0,31,1,5_41_0.5,5_41_,5,41,0.5,8
10852,13qk2,0.914,1.3085675611033412,16.7,images/experiment/pair_101_57_out_tensor(0.5000).png,332.0,32,1,101_57_0.5,101_57_,101,57,0.5,47
4252,13qk2,0.266,-1.4241962896949176,24.41,images/experiment/pair_92_64_out_tensor(0.3333).png,220.0,33,1,92_64_0.33,92_64_,92,64,0.33,43
3652,13qk2,0.176,-1.8037468245280093,23.65,images/experiment/pair_64_41_out_tensor(0.6667).png,356.0,34,1,64_41_0.67,64_41_,64,41,0.67,36
1452,13qk2,0.142,-1.9471325821316217,17.09,images/experiment/pair_37_64_out_tensor(0.3333).png,413.0,35,1,37_64_0.33,37_64_,37,64,0.33,25
5252,13qk2,0.278,-1.3735895517171721,14.46,images/experiment/pair_37_101_out_tensor(0.3333).png,421.0,36,1,37_101_0.33,37_101_,37,101,0.33,31
2852,13qk2,0.78,0.7434589870185161,33.43,images/experiment/pair_64_57_out_tensor(0.3333).png,279.0,37,1,64_57_0.33,64_57_,64,57,0.33,37
3252,13qk2,0.648,0.1867848692633152,22.93,images/experiment/41_start.png,393.0,38,1,41,41,41,,,2
6652,13qk2,0.516,-0.3698892484918857,19.82,images/experiment/pair_37_101_out_tensor(0.6667).png,394.0,39,1,37_101_0.67,37_101_,37,101,0.67,33
1252,13qk2,0.912,1.300133104773717,22.69,images/experiment/pair_5_64_out_tensor(0.3333).png,200.0,40,1,5_64_0.33,5_64_,5,64,0.33,10
9252,13qk2,0.292,-1.3145483574098025,19.52,images/experiment/pair_37_64_out_tensor(0.6667).png,22.0,41,1,37_64_0.67,37_64_,37,64,0.67,27
9852,13qk2,0.142,-1.9471325821316217,15.18,images/experiment/pair_5_64_out_tensor(0.6667).png,94.0,42,1,5_64_0.67,5_64_,5,64,0.67,12
652,13qk2,0.914,1.3085675611033412,19.03,images/experiment/pair_5_92_out_tensor(0.3333).png,408.0,43,1,5_92_0.33,5_92_,5,92,0.33,13
9052,13qk2,0.552,-0.2180690345586491,24.13,images/experiment/pair_5_92_out_tensor(0.5000).png,179.0,44,1,5_92_0.5,5_92_,5,92,0.5,14
8652,13qk2,0.262,-1.4410652023541661,46.07,images/experiment/pair_37_41_out_tensor(0.6667).png,225.0,45,1,37_41_0.67,37_41_,37,41,0.67,21
4452,13qk2,0.716,0.4735563844705399,22.45,images/experiment/pair_5_101_out_tensor(0.5000).png,114.0,46,1,5_101_0.5,5_101_,5,101,0.5,17
8252,13qk2,0.788,0.7771968123370131,25.75,images/experiment/57_start.png,499.0,47,1,57,57,57,,,3
6052,13qk2,0.19,-1.7447056302206394,25.58,images/experiment/pair_37_92_out_tensor(0.5000).png,443.0,48,1,37_92_0.5,37_92_,37,92,0.5,29
8452,13qk2,0.26,-1.4494996586837905,30.87,images/experiment/pair_101_92_out_tensor(0.5000).png,115.0,49,1,101_92_0.5,101_92_,101,92,0.5,53
4852,13qk2,0.728,0.5241631224482854,295.6,images/experiment/pair_101_64_out_tensor(0.5000).png,273.0,50,1,101_64_0.5,101_64_,101,64,0.5,50
852,13qk2,0.256,-1.466368571343039,32.11,images/experiment/pair_92_64_out_tensor(0.5000).png,183.0,51,1,92_64_0.5,92_64_,92,64,0.5,44
5652,13qk2,0.374,-0.9687356478952078,19.29,images/experiment/pair_92_57_out_tensor(0.6667).png,262.0,52,1,92_57_0.67,92_57_,92,57,0.67,42
5052,13qk2,0.262,-1.4410652023541661,16.14,images/experiment/pair_64_57_out_tensor(0.6667).png,189.0,53,1,64_57_0.67,64_57_,64,57,0.67,39
9652,13qk2,0.602,-0.007207626318042703,27.75,images/experiment/pair_101_92_out_tensor(0.3333).png,338.0,54,1,101_92_0.33,101_92_,101,92,0.33,52
8852,13qk2,0.89,1.2073540851478501,27.51,images/experiment/37_start.png,489.0,55,1,37,37,37,,,1
7052,13qk2,0.238,-1.5422786783096574,21.9,images/experiment/92_start.png,259.0,56,1,92,92,92,,,5
6452,13qk2,0.594,-0.040945451636539724,14.06,images/experiment/pair_64_41_out_tensor(0.5000).png,347.0,57,1,64_41_0.5,64_41_,64,41,0.5,35
1852,13qk2,0.8,0.8278035503147586,24.32,images/experiment/pair_101_92_out_tensor(0.6667).png,248.0,58,1,101_92_0.67,101_92_,101,92,0.67,54
7452,13qk2,0.872,1.1314439781812318,18.72,images/experiment/pair_37_57_out_tensor(0.5000).png,42.0,59,1,37_57_0.5,37_57_,37,57,0.5,23
5053,13qk2,0.392,-0.8928255409285896,32.07,images/experiment/pair_64_57_out_tensor(0.6667).png,323.0,1055,2,64_57_0.67,64_57_,64,57,0.67,39
453,13qk2,0.62,0.0687024806485756,38.27,images/experiment/pair_37_57_out_tensor(0.3333).png,488.0,1056,2,37_57_0.33,37_57_,37,57,0.33,22
10653,13qk2,0.69,0.36390845218542456,14.75,images/experiment/pair_37_92_out_tensor(0.3333).png,261.0,1057,2,37_92_0.33,37_92_,37,92,0.33,28
853,13qk2,0.344,-1.0952524928395717,33.35,images/experiment/pair_92_64_out_tensor(0.5000).png,256.0,1058,2,92_64_0.5,92_64_,92,64,0.5,44
1253,13qk2,1.0,1.6712491832771843,46.96,images/experiment/pair_5_64_out_tensor(0.3333).png,275.0,1059,2,5_64_0.33,5_64_,5,64,0.33,10
3653,13qk2,0.466,-0.5807506567324922,29.51,images/experiment/pair_64_41_out_tensor(0.6667).png,380.0,1060,2,64_41_0.67,64_41_,64,41,0.67,36
6053,13qk2,0.536,-0.28554468519564313,50.0,images/experiment/pair_37_92_out_tensor(0.5000).png,415.0,1061,2,37_92_0.5,37_92_,37,92,0.5,29
4653,13qk2,0.794,0.8025001813258859,23.5,images/experiment/pair_101_57_out_tensor(0.6667).png,77.0,1062,2,101_57_0.67,101_57_,101,57,0.67,48
7653,13qk2,0.894,1.2242229978070986,23.85,images/experiment/5_start.png,285.0,1063,2,5,5,5,,,0
9053,13qk2,0.552,-0.2180690345586491,19.31,images/experiment/pair_5_92_out_tensor(0.5000).png,409.0,1064,2,5_92_0.5,5_92_,5,92,0.5,14
9253,13qk2,0.244,-1.5169753093207845,52.77,images/experiment/pair_37_64_out_tensor(0.6667).png,210.0,1065,2,37_64_0.67,37_64_,37,64,0.67,27
3053,13qk2,0.84,0.9964926769072437,21.62,images/experiment/pair_5_41_out_tensor(0.6667).png,287.0,1066,2,5_41_0.67,5_41_,5,41,0.67,9
5653,13qk2,0.618,0.06026802431895134,26.45,images/experiment/pair_92_57_out_tensor(0.6667).png,324.0,1067,2,92_57_0.67,92_57_,92,57,0.67,42
8253,13qk2,0.686,0.34703953952617606,31.07,images/experiment/57_start.png,471.0,1068,2,57,57,57,,,3
6653,13qk2,0.422,-0.7663086959842257,44.04,images/experiment/pair_37_101_out_tensor(0.6667).png,192.0,1069,2,37_101_0.67,37_101_,37,101,0.67,33
4853,13qk2,0.782,0.7518934433481403,31.44,images/experiment/pair_101_64_out_tensor(0.5000).png,446.0,1070,2,101_64_0.5,101_64_,101,64,0.5,50
8653,13qk2,0.284,-1.3482861827282995,38.03,images/experiment/pair_37_41_out_tensor(0.6667).png,455.0,1071,2,37_41_0.67,37_41_,37,41,0.67,21
2453,13qk2,0.406,-0.8337843466212198,29.68,images/experiment/pair_101_57_out_tensor(0.3333).png,203.0,1072,2,101_57_0.33,101_57_,101,57,0.33,46
1453,13qk2,0.412,-0.808480977632347,58.97,images/experiment/pair_37_64_out_tensor(0.3333).png,445.0,1073,2,37_64_0.33,37_64_,37,64,0.33,25
5853,13qk2,0.674,0.2964328015484305,33.02,images/experiment/pair_64_57_out_tensor(0.5000).png,216.0,1074,2,64_57_0.5,64_57_,64,57,0.5,38
653,13qk2,0.912,1.300133104773717,175.29,images/experiment/pair_5_92_out_tensor(0.3333).png,45.0,1075,2,5_92_0.33,5_92_,5,92,0.33,13
3253,13qk2,0.43,-0.7325708706657287,44.18,images/experiment/41_start.png,342.0,1076,2,41,41,41,,,2
253,13qk2,0.466,-0.5807506567324922,24.24,images/experiment/pair_64_41_out_tensor(0.3333).png,112.0,1077,2,64_41_0.33,64_41_,64,41,0.33,34
7853,13qk2,0.926,1.3591742990810867,47.58,images/experiment/pair_5_41_out_tensor(0.5000).png,95.0,1078,2,5_41_0.5,5_41_,5,41,0.5,8
7453,13qk2,0.608,0.018095742670830063,39.93,images/experiment/pair_37_57_out_tensor(0.5000).png,464.0,1079,2,37_57_0.5,37_57_,37,57,0.5,23
1853,13qk2,0.8,0.8278035503147586,14.61,images/experiment/pair_101_92_out_tensor(0.6667).png,286.0,1080,2,101_92_0.67,101_92_,101,92,0.67,54
7053,13qk2,0.34,-1.1121214054988202,26.54,images/experiment/92_start.png,345.0,1081,2,92,92,92,,,5
4253,13qk2,0.344,-1.0952524928395717,40.65,images/experiment/pair_92_64_out_tensor(0.3333).png,335.0,1082,2,92_64_0.33,92_64_,92,64,0.33,43
10853,13qk2,0.714,0.46512192814091563,38.24,images/experiment/pair_101_57_out_tensor(0.5000).png,372.0,1083,2,101_57_0.5,101_57_,101,57,0.5,47
3853,13qk2,0.642,0.1614815002744424,45.97,images/experiment/pair_92_57_out_tensor(0.5000).png,14.0,1084,2,92_57_0.5,92_57_,92,57,0.5,41
9853,13qk2,0.606,0.009661286341205808,23.91,images/experiment/pair_5_64_out_tensor(0.6667).png,9.0,1085,2,5_64_0.67,5_64_,5,64,0.67,12
8453,13qk2,0.518,-0.36145479216226145,55.21,images/experiment/pair_101_92_out_tensor(0.5000).png,39.0,1086,2,101_92_0.5,101_92_,101,92,0.5,53
7253,13qk2,0.716,0.4735563844705399,59.47,images/experiment/pair_5_101_out_tensor(0.6667).png,255.0,1087,2,5_101_0.67,5_101_,5,101,0.67,18
6453,13qk2,0.834,0.971189307918371,74.56,images/experiment/pair_64_41_out_tensor(0.5000).png,239.0,1088,2,64_41_0.5,64_41_,64,41,0.5,35
2653,13qk2,0.71,0.4482530154816671,75.74,images/experiment/pair_37_64_out_tensor(0.5000).png,254.0,1089,2,37_64_0.5,37_64_,37,64,0.5,26
8053,13qk2,0.292,-1.3145483574098025,37.23,images/experiment/pair_37_101_out_tensor(0.5000).png,227.0,1090,2,37_101_0.5,37_101_,37,101,0.5,32
9653,13qk2,0.418,-0.7831776086434742,35.86,images/experiment/pair_101_92_out_tensor(0.3333).png,51.0,1091,2,101_92_0.33,101_92_,101,92,0.33,52
1653,13qk2,0.786,0.7687623560073888,26.85,images/experiment/pair_37_57_out_tensor(0.6667).png,337.0,1092,2,37_57_0.67,37_57_,37,57,0.67,24
6253,13qk2,0.744,0.5916387730852795,184.23,images/experiment/pair_37_41_out_tensor(0.5000).png,423.0,1093,2,37_41_0.5,37_41_,37,41,0.5,20
2053,13qk2,0.41,-0.8169154339619713,43.01,images/experiment/pair_92_64_out_tensor(0.6667).png,295.0,1094,2,92_64_0.67,92_64_,92,64,0.67,45
2253,13qk2,0.818,0.903713657281377,154.16,images/experiment/pair_5_64_out_tensor(0.5000).png,97.0,1095,2,5_64_0.5,5_64_,5,64,0.5,11
4453,13qk2,0.92,1.333870930092214,64.12,images/experiment/pair_5_101_out_tensor(0.5000).png,137.0,1096,2,5_101_0.5,5_101_,5,101,0.5,17
4053,13qk2,0.794,0.8025001813258859,19.69,images/experiment/pair_101_64_out_tensor(0.6667).png,451.0,1097,2,101_64_0.67,101_64_,101,64,0.67,51
10053,13qk2,0.29,-1.3229828137394266,35.19,images/experiment/pair_92_57_out_tensor(0.3333).png,160.0,1098,2,92_57_0.33,92_57_,92,57,0.33,40
1053,13qk2,0.918,1.3254364737625897,30.54,images/experiment/pair_5_101_out_tensor(0.3333).png,433.0,1099,2,5_101_0.33,5_101_,5,101,0.33,16
2853,13qk2,0.818,0.903713657281377,163.98,images/experiment/pair_64_57_out_tensor(0.3333).png,398.0,1100,2,64_57_0.33,64_57_,64,57,0.33,37
9453,13qk2,0.596,-0.03251099530691547,24.77,images/experiment/pair_37_92_out_tensor(0.6667).png,30.0,1101,2,37_92_0.67,37_92_,37,92,0.67,30
8853,13qk2,0.272,-1.398892920706045,47.58,images/experiment/37_start.png,403.0,1102,2,37,37,37,,,1
10453,13qk2,0.528,-0.3192825105141402,74.09,images/experiment/pair_37_41_out_tensor(0.3333).png,101.0,1103,2,37_41_0.33,37_41_,37,41,0.33,19
6853,13qk2,0.364,-1.0109079295433292,20.45,images/experiment/pair_101_64_out_tensor(0.3333).png,280.0,1104,2,101_64_0.33,101_64_,101,64,0.33,49
10253,13qk2,0.782,0.7518934433481403,30.14,images/experiment/101_start.png,54.0,1105,2,101,101,101,,,6
5253,13qk2,0.738,0.5663354040964067,20.42,images/experiment/pair_37_101_out_tensor(0.3333).png,25.0,1106,2,37_101_0.33,37_101_,37,101,0.33,31
53,13qk2,0.28,-1.365155095387548,24.46,images/experiment/64_start.png,313.0,1107,2,64,64,64,,,4
5453,13qk2,0.77,0.7012867053703948,18.41,images/experiment/pair_5_92_out_tensor(0.6667).png,341.0,1108,2,5_92_0.67,5_92_,5,92,0.67,15
3453,13qk2,0.902,1.2579608231255957,29.93,images/experiment/pair_5_41_out_tensor(0.3333).png,373.0,1109,2,5_41_0.33,5_41_,5,41,0.33,7
10498,19bq6,0.846,0.4216705842277978,51.827000000476836,images/experiment/pair_37_41_out_tensor(0.3333).png,373.0,5,1,37_41_0.33,37_41_,37,41,0.33,19
5498,19bq6,0.83,0.2891455434704899,41.10399999856949,images/experiment/pair_5_92_out_tensor(0.6667).png,92.0,6,1,5_92_0.67,5_92_,5,92,0.67,15
4898,19bq6,0.87,0.6204581453637598,38.38899999856949,images/experiment/pair_101_64_out_tensor(0.5000).png,6.0,7,1,101_64_0.5,101_64_,101,64,0.5,50
3898,19bq6,0.818,0.18975176290250886,28.629000000953674,images/experiment/pair_92_57_out_tensor(0.5000).png,200.0,8,1,92_57_0.5,92_57_,92,57,0.5,41
498,19bq6,0.8,0.04066109205053742,33.03200000047684,images/experiment/pair_37_57_out_tensor(0.3333).png,488.0,9,1,37_57_0.33,37_57_,37,57,0.33,22
7698,19bq6,0.988,1.597830320948906,38.631000001430515,images/experiment/5_start.png,494.0,10,1,5,5,5,,,0
5698,19bq6,0.788,-0.05873268851744356,41.992000000476835,images/experiment/pair_92_57_out_tensor(0.6667).png,56.0,11,1,92_57_0.67,92_57_,92,57,0.67,42
10098,19bq6,0.86,0.5376299948904423,29.107999999523162,images/experiment/pair_92_57_out_tensor(0.3333).png,290.0,12,1,92_57_0.33,92_57_,92,57,0.33,40
898,19bq6,0.644,-1.2514580553332153,38.15200000047684,images/experiment/pair_92_64_out_tensor(0.5000).png,355.0,13,1,92_64_0.5,92_64_,92,64,0.5,44
9298,19bq6,0.812,0.1400548726185184,30.47,images/experiment/pair_37_64_out_tensor(0.6667).png,468.0,14,1,37_64_0.67,37_64_,37,64,0.67,27
8698,19bq6,0.828,0.2725799133758264,39.59299999952316,images/experiment/pair_37_41_out_tensor(0.6667).png,264.0,15,1,37_41_0.67,37_41_,37,41,0.67,21
7898,19bq6,0.938,1.1836895685823186,38.71099999904633,images/experiment/pair_5_41_out_tensor(0.5000).png,304.0,16,1,5_41_0.5,5_41_,5,41,0.5,8
5898,19bq6,0.78,-0.12499520889609754,36.87100000143051,images/experiment/pair_64_57_out_tensor(0.5000).png,145.0,17,1,64_57_0.5,64_57_,64,57,0.5,38
2098,19bq6,0.756,-0.32378277003205946,41.51200000047684,images/experiment/pair_92_64_out_tensor(0.6667).png,143.0,18,1,92_64_0.67,92_64_,92,64,0.67,45
2698,19bq6,0.866,0.5873268851744328,29.83100000143051,images/experiment/pair_37_64_out_tensor(0.5000).png,68.0,19,1,37_64_0.5,37_64_,37,64,0.5,26
4298,19bq6,0.75,-0.37347966031604996,25.512000000476842,images/experiment/pair_92_64_out_tensor(0.3333).png,172.0,20,1,92_64_0.33,92_64_,92,64,0.33,43
1098,19bq6,0.974,1.4818709102862615,25.35,images/experiment/pair_5_101_out_tensor(0.3333).png,149.0,21,1,5_101_0.33,5_101_,5,101,0.33,16
9098,19bq6,0.962,1.3824771297182805,26.395,images/experiment/pair_5_92_out_tensor(0.5000).png,414.0,22,1,5_92_0.5,5_92_,5,92,0.5,14
9698,19bq6,1.0,1.697224101516887,33.83199999809265,images/experiment/pair_101_92_out_tensor(0.3333).png,83.0,23,1,101_92_0.33,101_92_,101,92,0.33,52
1898,19bq6,0.84,0.3719736939438073,24.71300000190735,images/experiment/pair_101_92_out_tensor(0.6667).png,61.0,24,1,101_92_0.67,101_92_,101,92,0.67,54
698,19bq6,1.0,1.697224101516887,52.55700000047684,images/experiment/pair_5_92_out_tensor(0.3333).png,75.0,25,1,5_92_0.33,5_92_,5,92,0.33,13
7498,19bq6,0.716,-0.6550953719253294,43.746999998092654,images/experiment/pair_37_57_out_tensor(0.5000).png,375.0,26,1,37_57_0.5,37_57_,37,57,0.5,23
8098,19bq6,0.926,1.0842957880143376,22.39200000047684,images/experiment/pair_37_101_out_tensor(0.5000).png,388.0,27,1,37_101_0.5,37_101_,37,101,0.5,32
6898,19bq6,0.776,-0.15812646908542452,22.712999999523163,images/experiment/pair_101_64_out_tensor(0.3333).png,222.0,28,1,101_64_0.33,101_64_,101,64,0.33,49
98,19bq6,0.626,-1.4005487261851868,31.675,images/experiment/64_start.png,208.0,29,1,64,64,64,,,4
3098,19bq6,0.81,0.12348924252385489,21.67,images/experiment/pair_5_41_out_tensor(0.6667).png,282.0,30,1,5_41_0.67,5_41_,5,41,0.67,9
9898,19bq6,0.876,0.6701550356477503,30.474000000953673,images/experiment/pair_5_64_out_tensor(0.6667).png,131.0,31,1,5_64_0.67,5_64_,5,64,0.67,12
6298,19bq6,0.74,-0.45630781078936744,23.27600000143051,images/experiment/pair_37_41_out_tensor(0.5000).png,409.0,32,1,37_41_0.5,37_41_,37,41,0.5,20
8498,19bq6,0.782,-0.10842957880143404,37.19,images/experiment/pair_101_92_out_tensor(0.5000).png,129.0,33,1,101_92_0.5,101_92_,101,92,0.5,53
298,19bq6,0.696,-0.8207516728719644,20.633000001907348,images/experiment/pair_64_41_out_tensor(0.3333).png,186.0,34,1,64_41_0.33,64_41_,64,41,0.33,34
10298,19bq6,0.794,-0.009035798233453072,38.23399999856949,images/experiment/101_start.png,427.0,35,1,101,101,101,,,6
5298,19bq6,0.834,0.32227680365981687,26.23200000047684,images/experiment/pair_37_101_out_tensor(0.3333).png,253.0,36,1,37_101_0.33,37_101_,37,101,0.33,31
10898,19bq6,0.738,-0.47287344088403094,25.51099999904633,images/experiment/pair_101_57_out_tensor(0.5000).png,154.0,37,1,101_57_0.5,101_57_,101,57,0.5,47
3698,19bq6,0.714,-0.6716610020199929,27.192999999523163,images/experiment/pair_64_41_out_tensor(0.6667).png,465.0,38,1,64_41_0.67,64_41_,64,41,0.67,36
8898,19bq6,1.0,1.697224101516887,27.352999999523163,images/experiment/37_start.png,274.0,39,1,37,37,37,,,1
8298,19bq6,0.684,-0.9201454534399454,27.35,images/experiment/57_start.png,73.0,40,1,57,57,57,,,3
4098,19bq6,0.716,-0.6550953719253294,29.19599999904633,images/experiment/pair_101_64_out_tensor(0.6667).png,497.0,41,1,101_64_0.67,101_64_,101,64,0.67,51
1698,19bq6,0.738,-0.47287344088403094,26.07199999809265,images/experiment/pair_37_57_out_tensor(0.6667).png,330.0,42,1,37_57_0.67,37_57_,37,57,0.67,24
2498,19bq6,0.72,-0.6219641117360024,21.992999999523164,images/experiment/pair_101_57_out_tensor(0.3333).png,379.0,43,1,101_57_0.33,101_57_,101,57,0.33,46
7298,19bq6,0.93,1.1174270482036646,29.915,images/experiment/pair_5_101_out_tensor(0.6667).png,341.0,44,1,5_101_0.67,5_101_,5,101,0.67,18
5098,19bq6,0.768,-0.2243889894640785,43.517000000476834,images/experiment/pair_64_57_out_tensor(0.6667).png,300.0,45,1,64_57_0.67,64_57_,64,57,0.67,39
7098,19bq6,0.792,-0.025601428328116568,34.147999999523165,images/experiment/92_start.png,24.0,46,1,92,92,92,,,5
6498,19bq6,0.732,-0.5225703311680214,28.233999998569487,images/experiment/pair_64_41_out_tensor(0.5000).png,221.0,47,1,64_41_0.5,64_41_,64,41,0.5,35
2898,19bq6,0.642,-1.2680236854278788,39.19099999904633,images/experiment/pair_64_57_out_tensor(0.3333).png,217.0,48,1,64_57_0.33,64_57_,64,57,0.33,37
6098,19bq6,0.924,1.067730157919674,48.63400000095368,images/experiment/pair_37_92_out_tensor(0.5000).png,482.0,49,1,37_92_0.5,37_92_,37,92,0.5,29
1298,19bq6,1.0,1.697224101516887,22.07,images/experiment/pair_5_64_out_tensor(0.3333).png,279.0,50,1,5_64_0.33,5_64_,5,64,0.33,10
3298,19bq6,0.638,-1.3011549456172058,46.47600000143051,images/experiment/41_start.png,28.0,51,1,41,41,41,,,2
3498,19bq6,1.0,1.697224101516887,24.07,images/experiment/pair_5_41_out_tensor(0.3333).png,85.0,52,1,5_41_0.33,5_41_,5,41,0.33,7
4498,19bq6,1.0,1.697224101516887,19.99200000047684,images/experiment/pair_5_101_out_tensor(0.5000).png,249.0,53,1,5_101_0.5,5_101_,5,101,0.5,17
4698,19bq6,0.95,1.2830833491502995,29.752999999523162,images/experiment/pair_101_57_out_tensor(0.6667).png,425.0,54,1,101_57_0.67,101_57_,101,57,0.67,48
10698,19bq6,0.84,0.3719736939438073,25.834000000953676,images/experiment/pair_37_92_out_tensor(0.3333).png,376.0,55,1,37_92_0.33,37_92_,37,92,0.33,28
9498,19bq6,0.804,0.07379235223986441,35.27599999904633,images/experiment/pair_37_92_out_tensor(0.6667).png,135.0,56,1,37_92_0.67,37_92_,37,92,0.67,30
1498,19bq6,0.804,0.07379235223986441,33.665,images/experiment/pair_37_64_out_tensor(0.3333).png,479.0,57,1,37_64_0.33,37_64_,37,64,0.33,25
6698,19bq6,0.854,0.4879331046064518,22.792000000476843,images/experiment/pair_37_101_out_tensor(0.6667).png,383.0,58,1,37_101_0.67,37_101_,37,101,0.67,33
2298,19bq6,0.734,-0.5060047010733579,33.675,images/experiment/pair_5_64_out_tensor(0.5000).png,88.0,59,1,5_64_0.5,5_64_,5,64,0.5,11
9699,19bq6,0.668,-1.0526704941972533,32.22600000143051,images/experiment/pair_101_92_out_tensor(0.3333).png,87.0,236,2,101_92_0.33,101_92_,101,92,0.33,52
10499,19bq6,0.714,-0.6716610020199929,55.99,images/experiment/pair_37_41_out_tensor(0.3333).png,370.0,237,2,37_41_0.33,37_41_,37,41,0.33,19
6499,19bq6,0.702,-0.7710547825879739,23.026999998092652,images/experiment/pair_64_41_out_tensor(0.5000).png,411.0,238,2,64_41_0.5,64_41_,64,41,0.5,35
899,19bq6,0.696,-0.8207516728719644,24.06600000143051,images/experiment/pair_92_64_out_tensor(0.5000).png,442.0,239,2,92_64_0.5,92_64_,92,64,0.5,44
4099,19bq6,0.684,-0.9201454534399454,19.75700000047684,images/experiment/pair_101_64_out_tensor(0.6667).png,311.0,240,2,101_64_0.67,101_64_,101,64,0.67,51
10099,19bq6,0.744,-0.42317655060004045,24.868000001907347,images/experiment/pair_92_57_out_tensor(0.3333).png,173.0,241,2,92_57_0.33,92_57_,92,57,0.33,40
2699,19bq6,0.732,-0.5225703311680214,23.11600000143051,images/experiment/pair_37_64_out_tensor(0.5000).png,417.0,242,2,37_64_0.5,37_64_,37,64,0.5,26
7499,19bq6,0.77,-0.207823359369415,28.15,images/experiment/pair_37_57_out_tensor(0.5000).png,323.0,243,2,37_57_0.5,37_57_,37,57,0.5,23
3099,19bq6,0.918,1.0180332676356836,25.67,images/experiment/pair_5_41_out_tensor(0.6667).png,62.0,244,2,5_41_0.67,5_41_,5,41,0.67,9
4299,19bq6,0.728,-0.5557015913573484,20.31200000047684,images/experiment/pair_92_64_out_tensor(0.3333).png,334.0,245,2,92_64_0.33,92_64_,92,64,0.33,43
2899,19bq6,0.388,-3.3718587074501425,29.11200000047684,images/experiment/pair_64_57_out_tensor(0.3333).png,38.0,246,2,64_57_0.33,64_57_,64,57,0.33,37
9299,19bq6,0.654,-1.1686299048598978,25.915,images/experiment/pair_37_64_out_tensor(0.6667).png,40.0,247,2,37_64_0.67,37_64_,37,64,0.67,27
6299,19bq6,0.738,-0.47287344088403094,24.95,images/experiment/pair_37_41_out_tensor(0.5000).png,139.0,248,2,37_41_0.5,37_41_,37,41,0.5,20
10899,19bq6,0.786,-0.07529831861210705,21.269000000953675,images/experiment/pair_101_57_out_tensor(0.5000).png,365.0,249,2,101_57_0.5,101_57_,101,57,0.5,47
3899,19bq6,0.864,0.5707612550797693,24.152999999523164,images/experiment/pair_92_57_out_tensor(0.5000).png,325.0,250,2,92_57_0.5,92_57_,92,57,0.5,41
9499,19bq6,0.734,-0.5060047010733579,26.71,images/experiment/pair_37_92_out_tensor(0.6667).png,413.0,251,2,37_92_0.67,37_92_,37,92,0.67,30
99,19bq6,0.38,-3.4381212278287965,28.072999999523162,images/experiment/64_start.png,244.0,252,2,64,64,64,,,4
8099,19bq6,0.768,-0.2243889894640785,31.912999999523162,images/experiment/pair_37_101_out_tensor(0.5000).png,199.0,253,2,37_101_0.5,37_101_,37,101,0.5,32
5699,19bq6,0.674,-1.0029736039132628,51.66899999856949,images/experiment/pair_92_57_out_tensor(0.6667).png,463.0,254,2,92_57_0.67,92_57_,92,57,0.67,42
1299,19bq6,0.984,1.564699060759579,30.868000001907347,images/experiment/pair_5_64_out_tensor(0.3333).png,358.0,255,2,5_64_0.33,5_64_,5,64,0.33,10
3299,19bq6,0.68,-0.9532767136292724,39.99200000047684,images/experiment/41_start.png,156.0,256,2,41,41,41,,,2
8699,19bq6,0.72,-0.6219641117360024,25.82799999952316,images/experiment/pair_37_41_out_tensor(0.6667).png,19.0,257,2,37_41_0.67,37_41_,37,41,0.67,21
5899,19bq6,0.624,-1.4171143562798503,27.51099999904633,images/experiment/pair_64_57_out_tensor(0.5000).png,284.0,258,2,64_57_0.5,64_57_,64,57,0.5,38
8299,19bq6,0.686,-0.9035798233452819,26.312999999523164,images/experiment/57_start.png,421.0,259,2,57,57,57,,,3
4499,19bq6,0.978,1.5150021704755885,27.35100000143051,images/experiment/pair_5_101_out_tensor(0.5000).png,47.0,260,2,5_101_0.5,5_101_,5,101,0.5,17
7899,19bq6,0.908,0.9352051171623662,23.35099999904633,images/experiment/pair_5_41_out_tensor(0.5000).png,400.0,261,2,5_41_0.5,5_41_,5,41,0.5,8
8899,19bq6,1.0,1.697224101516887,26.394000000953675,images/experiment/37_start.png,294.0,262,2,37,37,37,,,1
6899,19bq6,0.756,-0.32378277003205946,30.069000000953675,images/experiment/pair_101_64_out_tensor(0.3333).png,117.0,263,2,101_64_0.33,101_64_,101,64,0.33,49
1099,19bq6,0.966,1.4156083899076075,35.27,images/experiment/pair_5_101_out_tensor(0.3333).png,317.0,264,2,5_101_0.33,5_101_,5,101,0.33,16
299,19bq6,0.71,-0.7047922622093199,18.38200000047684,images/experiment/pair_64_41_out_tensor(0.3333).png,270.0,265,2,64_41_0.33,64_41_,64,41,0.33,34
9899,19bq6,0.668,-1.0526704941972533,28.79299999952316,images/experiment/pair_5_64_out_tensor(0.6667).png,36.0,266,2,5_64_0.67,5_64_,5,64,0.67,12
4699,19bq6,0.81,0.12348924252385489,23.11,images/experiment/pair_101_57_out_tensor(0.6667).png,110.0,267,2,101_57_0.67,101_57_,101,57,0.67,48
3699,19bq6,0.702,-0.7710547825879739,24.875,images/experiment/pair_64_41_out_tensor(0.6667).png,381.0,268,2,64_41_0.67,64_41_,64,41,0.67,36
1899,19bq6,0.83,0.2891455434704899,25.195,images/experiment/pair_101_92_out_tensor(0.6667).png,211.0,269,2,101_92_0.67,101_92_,101,92,0.67,54
10299,19bq6,0.708,-0.7213578923039834,32.22699999809265,images/experiment/101_start.png,466.0,270,2,101,101,101,,,6
2299,19bq6,0.782,-0.10842957880143404,26.312000000476843,images/experiment/pair_5_64_out_tensor(0.5000).png,454.0,271,2,5_64_0.5,5_64_,5,64,0.5,11
5499,19bq6,0.896,0.8358113365943852,26.708000001907347,images/experiment/pair_5_92_out_tensor(0.6667).png,161.0,272,2,5_92_0.67,5_92_,5,92,0.67,15
4899,19bq6,0.708,-0.7213578923039834,44.632000000476836,images/experiment/pair_101_64_out_tensor(0.5000).png,144.0,273,2,101_64_0.5,101_64_,101,64,0.5,50
7099,19bq6,0.752,-0.35691403022138646,40.07200000047684,images/experiment/92_start.png,191.0,274,2,92,92,92,,,5
6099,19bq6,0.87,0.6204581453637598,31.59199999809265,images/experiment/pair_37_92_out_tensor(0.5000).png,410.0,275,2,37_92_0.5,37_92_,37,92,0.5,29
2099,19bq6,0.636,-1.3177205757118693,29.829000000953673,images/experiment/pair_92_64_out_tensor(0.6667).png,356.0,276,2,92_64_0.67,92_64_,92,64,0.67,45
6699,19bq6,0.812,0.1400548726185184,29.51399999856949,images/experiment/pair_37_101_out_tensor(0.6667).png,374.0,277,2,37_101_0.67,37_101_,37,101,0.67,33
5299,19bq6,0.756,-0.32378277003205946,23.98899999856949,images/experiment/pair_37_101_out_tensor(0.3333).png,183.0,278,2,37_101_0.33,37_101_,37,101,0.33,31
8499,19bq6,0.698,-0.8041860427773009,19.67100000143051,images/experiment/pair_101_92_out_tensor(0.5000).png,391.0,279,2,101_92_0.5,101_92_,101,92,0.5,53
1699,19bq6,0.764,-0.25752024965340553,23.111999998092653,images/experiment/pair_37_57_out_tensor(0.6667).png,336.0,280,2,37_57_0.67,37_57_,37,57,0.67,24
7699,19bq6,0.992,1.630961581138233,31.352999999523163,images/experiment/5_start.png,126.0,281,2,5,5,5,,,0
2499,19bq6,0.746,-0.40661092050537695,19.907999999523167,images/experiment/pair_101_57_out_tensor(0.3333).png,396.0,282,2,101_57_0.33,101_57_,101,57,0.33,46
699,19bq6,0.986,1.5812646908542425,25.672999999523164,images/experiment/pair_5_92_out_tensor(0.3333).png,14.0,283,2,5_92_0.33,5_92_,5,92,0.33,13
499,19bq6,0.788,-0.05873268851744356,28.87200000047684,images/experiment/pair_37_57_out_tensor(0.3333).png,69.0,284,2,37_57_0.33,37_57_,37,57,0.33,22
1499,19bq6,0.668,-1.0526704941972533,20.71200000047684,images/experiment/pair_37_64_out_tensor(0.3333).png,174.0,285,2,37_64_0.33,37_64_,37,64,0.33,25
9099,19bq6,0.786,-0.07529831861210705,34.872000000476845,images/experiment/pair_5_92_out_tensor(0.5000).png,246.0,286,2,5_92_0.5,5_92_,5,92,0.5,14
10699,19bq6,0.716,-0.6550953719253294,26.151999998092652,images/experiment/pair_37_92_out_tensor(0.3333).png,406.0,287,2,37_92_0.33,37_92_,37,92,0.33,28
3499,19bq6,0.998,1.6806584714222235,27.754000000953674,images/experiment/pair_5_41_out_tensor(0.3333).png,157.0,288,2,5_41_0.33,5_41_,5,41,0.33,7
7299,19bq6,0.956,1.33278023943429,22.71,images/experiment/pair_5_101_out_tensor(0.6667).png,419.0,289,2,5_101_0.67,5_101_,5,101,0.67,18
5099,19bq6,0.83,0.2891455434704899,27.515,images/experiment/pair_64_57_out_tensor(0.6667).png,283.0,290,2,64_57_0.67,64_57_,64,57,0.67,39
1280,1nrte,0.642,1.0130899865809064,60.147999999523165,images/experiment/pair_5_64_out_tensor(0.3333).png,186.0,5,1,5_64_0.33,5_64_,5,64,0.33,10
80,1nrte,0.484,0.08147602008481361,22.788999998569487,images/experiment/64_start.png,275.0,6,1,64,64,64,,,4
8480,1nrte,0.25,-1.2982560568777541,28.20099999904633,images/experiment/pair_101_92_out_tensor(0.5000).png,151.0,7,1,101_92_0.5,101_92_,101,92,0.5,53
4680,1nrte,0.298,-1.0152340923726122,26.82200000047684,images/experiment/pair_101_57_out_tensor(0.6667).png,65.0,8,1,101_57_0.67,101_57_,101,57,0.67,48
10080,1nrte,0.286,-1.0859895834988975,30.84899999856949,images/experiment/pair_92_57_out_tensor(0.3333).png,29.0,9,1,92_57_0.33,92_57_,92,57,0.33,40
10880,1nrte,0.362,-0.6378714730324226,28.185,images/experiment/pair_101_57_out_tensor(0.5000).png,255.0,10,1,101_57_0.5,101_57_,101,57,0.5,47
10680,1nrte,0.648,1.0484677321440492,32.41799999952316,images/experiment/pair_37_92_out_tensor(0.3333).png,353.0,11,1,37_92_0.33,37_92_,37,92,0.33,28
880,1nrte,0.316,-0.9091008556831838,33.22799999952316,images/experiment/pair_92_64_out_tensor(0.5000).png,475.0,12,1,92_64_0.5,92_64_,92,64,0.5,44
3880,1nrte,0.388,-0.48456790892547064,26.18,images/experiment/pair_92_57_out_tensor(0.5000).png,300.0,13,1,92_57_0.5,92_57_,92,57,0.5,41
5680,1nrte,0.412,-0.34305692667289955,34.19799999952316,images/experiment/pair_92_57_out_tensor(0.6667).png,107.0,14,1,92_57_0.67,92_57_,92,57,0.67,42
2880,1nrte,0.57,0.5885570398231932,31.062999999523164,images/experiment/pair_64_57_out_tensor(0.3333).png,66.0,15,1,64_57_0.33,64_57_,64,57,0.33,37
2080,1nrte,0.254,-1.2746708931689923,20.53099999904633,images/experiment/pair_92_64_out_tensor(0.6667).png,191.0,16,1,92_64_0.67,92_64_,92,64,0.67,45
4080,1nrte,0.594,0.7300680220757643,25.30799999952316,images/experiment/pair_101_64_out_tensor(0.6667).png,361.0,17,1,101_64_0.67,101_64_,101,64,0.67,51
7680,1nrte,0.716,1.4494155151930006,32.76400000095367,images/experiment/5_start.png,283.0,18,1,5,5,5,,,0
5080,1nrte,0.346,-0.7322121278674699,23.119000000953676,images/experiment/pair_64_57_out_tensor(0.6667).png,100.0,19,1,64_57_0.67,64_57_,64,57,0.67,39
8680,1nrte,0.644,1.0248825684352874,25.707000000476842,images/experiment/pair_37_41_out_tensor(0.6667).png,154.0,20,1,37_41_0.67,37_41_,37,41,0.67,21
5880,1nrte,0.352,-0.6968343823043273,37.381000001430515,images/experiment/pair_64_57_out_tensor(0.5000).png,473.0,21,1,64_57_0.5,64_57_,64,57,0.5,38
2480,1nrte,0.478,0.04609827452167085,24.777999999523164,images/experiment/pair_101_57_out_tensor(0.3333).png,19.0,22,1,101_57_0.33,101_57_,101,57,0.33,46
1480,1nrte,0.64,1.0012974047265255,26.38599999904633,images/experiment/pair_37_64_out_tensor(0.3333).png,320.0,23,1,37_64_0.33,37_64_,37,64,0.33,25
8880,1nrte,0.53,0.3527054027355748,27.47599999904633,images/experiment/37_start.png,288.0,24,1,37,37,37,,,1
7080,1nrte,0.542,0.4234608938618603,40.59600000143051,images/experiment/92_start.png,61.0,25,1,92,92,92,,,5
9680,1nrte,0.43,-0.23692368998347127,27.75599999904633,images/experiment/pair_101_92_out_tensor(0.3333).png,34.0,26,1,101_92_0.33,101_92_,101,92,0.33,52
3080,1nrte,0.636,0.9777122410177637,29.16599999904633,images/experiment/pair_5_41_out_tensor(0.6667).png,356.0,27,1,5_41_0.67,5_41_,5,41,0.67,9
7880,1nrte,0.666,1.1546009688334775,29.594000000953674,images/experiment/pair_5_41_out_tensor(0.5000).png,230.0,28,1,5_41_0.5,5_41_,5,41,0.5,8
9280,1nrte,0.572,0.6003496216775741,23.76800000190735,images/experiment/pair_37_64_out_tensor(0.6667).png,45.0,29,1,37_64_0.67,37_64_,37,64,0.67,27
7480,1nrte,0.618,0.8715790043283353,25.31600000143051,images/experiment/pair_37_57_out_tensor(0.5000).png,423.0,30,1,37_57_0.5,37_57_,37,57,0.5,23
8080,1nrte,0.32,-0.8855156919744219,19.78,images/experiment/pair_37_101_out_tensor(0.5000).png,2.0,31,1,37_101_0.5,37_101_,37,101,0.5,32
3480,1nrte,0.594,0.7300680220757643,19.15200000047684,images/experiment/pair_5_41_out_tensor(0.3333).png,50.0,32,1,5_41_0.33,5_41_,5,41,0.33,7
7280,1nrte,0.344,-0.7440047097218508,19.71300000190735,images/experiment/pair_5_101_out_tensor(0.6667).png,467.0,33,1,5_101_0.67,5_101_,5,101,0.67,18
3280,1nrte,0.716,1.4494155151930006,19.565999999046326,images/experiment/41_start.png,439.0,34,1,41,41,41,,,2
10480,1nrte,0.668,1.1663935506878584,27.954000000953673,images/experiment/pair_37_41_out_tensor(0.3333).png,425.0,35,1,37_41_0.33,37_41_,37,41,0.33,19
9880,1nrte,0.56,0.5295941305512887,22.18600000143051,images/experiment/pair_5_64_out_tensor(0.6667).png,494.0,36,1,5_64_0.67,5_64_,5,64,0.67,12
1080,1nrte,0.588,0.6946902765126215,26.28099999904633,images/experiment/pair_5_101_out_tensor(0.3333).png,125.0,37,1,5_101_0.33,5_101_,5,101,0.33,16
280,1nrte,0.32,-0.8855156919744219,32.60100000143051,images/experiment/pair_64_41_out_tensor(0.3333).png,331.0,38,1,64_41_0.33,64_41_,64,41,0.33,34
5480,1nrte,0.338,-0.7793824552849936,27.139000000953676,images/experiment/pair_5_92_out_tensor(0.6667).png,332.0,39,1,5_92_0.67,5_92_,5,92,0.67,15
6280,1nrte,0.708,1.402245187775477,21.78700000047684,images/experiment/pair_37_41_out_tensor(0.5000).png,277.0,40,1,37_41_0.5,37_41_,37,41,0.5,20
4480,1nrte,0.362,-0.6378714730324226,34.35599999904633,images/experiment/pair_5_101_out_tensor(0.5000).png,80.0,41,1,5_101_0.5,5_101_,5,101,0.5,17
9080,1nrte,0.636,0.9777122410177637,24.81599999904633,images/experiment/pair_5_92_out_tensor(0.5000).png,196.0,42,1,5_92_0.5,5_92_,5,92,0.5,14
2680,1nrte,0.632,0.9541270773090018,23.564000000953673,images/experiment/pair_37_64_out_tensor(0.5000).png,168.0,43,1,37_64_0.5,37_64_,37,64,0.5,26
4280,1nrte,0.584,0.6711051128038596,19.63200000047684,images/experiment/pair_92_64_out_tensor(0.3333).png,460.0,44,1,92_64_0.33,92_64_,92,64,0.33,43
2280,1nrte,0.654,1.083845477707192,23.645,images/experiment/pair_5_64_out_tensor(0.5000).png,67.0,45,1,5_64_0.5,5_64_,5,64,0.5,11
4880,1nrte,0.326,-0.8501379464112792,19.472999999523164,images/experiment/pair_101_64_out_tensor(0.5000).png,366.0,46,1,101_64_0.5,101_64_,101,64,0.5,50
1880,1nrte,0.346,-0.7322121278674699,26.752999999523162,images/experiment/pair_101_92_out_tensor(0.6667).png,260.0,47,1,101_92_0.67,101_92_,101,92,0.67,54
9480,1nrte,0.314,-0.9208934375375647,19.871000001430513,images/experiment/pair_37_92_out_tensor(0.6667).png,137.0,48,1,37_92_0.67,37_92_,37,92,0.67,30
6480,1nrte,0.25,-1.2982560568777541,20.664000000953674,images/experiment/pair_64_41_out_tensor(0.5000).png,73.0,49,1,64_41_0.5,64_41_,64,41,0.5,35
6880,1nrte,0.314,-0.9208934375375647,28.105,images/experiment/pair_101_64_out_tensor(0.3333).png,179.0,50,1,101_64_0.33,101_64_,101,64,0.33,49
680,1nrte,0.554,0.49421638498814585,18.233999998569487,images/experiment/pair_5_92_out_tensor(0.3333).png,462.0,51,1,5_92_0.33,5_92_,5,92,0.33,13
1680,1nrte,0.594,0.7300680220757643,33.662999999523166,images/experiment/pair_37_57_out_tensor(0.6667).png,444.0,52,1,37_57_0.67,37_57_,37,57,0.67,24
8280,1nrte,0.662,1.1310158051247157,43.27400000095368,images/experiment/57_start.png,449.0,53,1,57,57,57,,,3
10280,1nrte,0.302,-0.9916489286638502,25.65399999856949,images/experiment/101_start.png,339.0,54,1,101,101,101,,,6
480,1nrte,0.714,1.4376229333386197,16.66199999809265,images/experiment/pair_37_57_out_tensor(0.3333).png,313.0,55,1,37_57_0.33,37_57_,37,57,0.33,22
3680,1nrte,0.298,-1.0152340923726122,34.58299999952316,images/experiment/pair_64_41_out_tensor(0.6667).png,223.0,56,1,64_41_0.67,64_41_,64,41,0.67,36
6080,1nrte,0.612,0.8362012587651926,27.77299999952316,images/experiment/pair_37_92_out_tensor(0.5000).png,249.0,57,1,37_92_0.5,37_92_,37,92,0.5,29
5280,1nrte,0.686,1.2725267873772867,45.87,images/experiment/pair_37_101_out_tensor(0.3333).png,215.0,58,1,37_101_0.33,37_101_,37,101,0.33,31
6680,1nrte,0.338,-0.7793824552849936,22.259000000953673,images/experiment/pair_37_101_out_tensor(0.6667).png,86.0,59,1,37_101_0.67,37_101_,37,101,0.67,33
2281,1nrte,0.65,1.0602603139984301,80.175,images/experiment/pair_5_64_out_tensor(0.5000).png,117.0,1084,2,5_64_0.5,5_64_,5,64,0.5,11
3881,1nrte,0.278,-1.1331599109164212,37.51,images/experiment/pair_92_57_out_tensor(0.5000).png,365.0,1085,2,92_57_0.5,92_57_,92,57,0.5,41
10081,1nrte,0.296,-1.027026674226993,29.05899999856949,images/experiment/pair_92_57_out_tensor(0.3333).png,167.0,1086,2,92_57_0.33,92_57_,92,57,0.33,40
8281,1nrte,0.346,-0.7322121278674699,29.388000001907347,images/experiment/57_start.png,18.0,1087,2,57,57,57,,,3
4481,1nrte,0.344,-0.7440047097218508,19.31,images/experiment/pair_5_101_out_tensor(0.5000).png,341.0,1088,2,5_101_0.5,5_101_,5,101,0.5,17
9881,1nrte,0.59,0.7064828583670024,24.68200000047684,images/experiment/pair_5_64_out_tensor(0.6667).png,432.0,1089,2,5_64_0.67,5_64_,5,64,0.67,12
2881,1nrte,0.298,-1.0152340923726122,20.322999999523166,images/experiment/pair_64_57_out_tensor(0.3333).png,325.0,1090,2,64_57_0.33,64_57_,64,57,0.33,37
681,1nrte,0.5,0.17581667491986097,26.212999999523163,images/experiment/pair_5_92_out_tensor(0.3333).png,298.0,1091,2,5_92_0.33,5_92_,5,92,0.33,13
7281,1nrte,0.356,-0.6732492185955654,30.963999998569488,images/experiment/pair_5_101_out_tensor(0.6667).png,150.0,1092,2,5_101_0.67,5_101_,5,101,0.67,18
6681,1nrte,0.398,-0.425604999653566,28.265,images/experiment/pair_37_101_out_tensor(0.6667).png,101.0,1093,2,37_101_0.67,37_101_,37,101,0.67,33
10281,1nrte,0.202,-1.5812780213828963,26.262000000476842,images/experiment/101_start.png,189.0,1094,2,101,101,101,,,6
9081,1nrte,0.274,-1.156745074625183,24.84,images/experiment/pair_5_92_out_tensor(0.5000).png,424.0,1095,2,5_92_0.5,5_92_,5,92,0.5,14
81,1nrte,0.28,-1.1213673290620403,22.01700000047684,images/experiment/64_start.png,409.0,1096,2,64,64,64,,,4
5881,1nrte,0.352,-0.6968343823043273,34.515,images/experiment/pair_64_57_out_tensor(0.5000).png,340.0,1097,2,64_57_0.5,64_57_,64,57,0.5,38
2681,1nrte,0.62,0.8833715861827163,21.629000000953674,images/experiment/pair_37_64_out_tensor(0.5000).png,231.0,1098,2,37_64_0.5,37_64_,37,64,0.5,26
8881,1nrte,0.398,-0.425604999653566,31.39200000047684,images/experiment/37_start.png,157.0,1099,2,37,37,37,,,1
7081,1nrte,0.338,-0.7793824552849936,19.362999999523165,images/experiment/92_start.png,371.0,1100,2,92,92,92,,,5
481,1nrte,0.612,0.8362012587651926,20.597000000476843,images/experiment/pair_37_57_out_tensor(0.3333).png,267.0,1101,2,37_57_0.33,37_57_,37,57,0.33,22
4081,1nrte,0.536,0.38808314829871754,20.995,images/experiment/pair_101_64_out_tensor(0.6667).png,193.0,1102,2,101_64_0.67,101_64_,101,64,0.67,51
3681,1nrte,0.272,-1.168537656479564,22.03,images/experiment/pair_64_41_out_tensor(0.6667).png,496.0,1103,2,64_41_0.67,64_41_,64,41,0.67,36
1081,1nrte,0.422,-0.28409401740099494,27.222999999523164,images/experiment/pair_5_101_out_tensor(0.3333).png,102.0,1104,2,5_101_0.33,5_101_,5,101,0.33,16
1881,1nrte,0.286,-1.0859895834988975,23.79599999904633,images/experiment/pair_101_92_out_tensor(0.6667).png,452.0,1105,2,101_92_0.67,101_92_,101,92,0.67,54
9681,1nrte,0.382,-0.5199456544886134,24.40599999904633,images/experiment/pair_101_92_out_tensor(0.3333).png,463.0,1106,2,101_92_0.33,101_92_,101,92,0.33,52
5081,1nrte,0.558,0.5178015486969078,20.28,images/experiment/pair_64_57_out_tensor(0.6667).png,164.0,1107,2,64_57_0.67,64_57_,64,57,0.67,39
1481,1nrte,0.698,1.3432822785035723,21.062999999523164,images/experiment/pair_37_64_out_tensor(0.3333).png,378.0,1108,2,37_64_0.33,37_64_,37,64,0.33,25
7481,1nrte,0.69,1.2961119510860486,20.915,images/experiment/pair_37_57_out_tensor(0.5000).png,427.0,1109,2,37_57_0.5,37_57_,37,57,0.5,23
8081,1nrte,0.686,1.2725267873772867,20.652000000476843,images/experiment/pair_37_101_out_tensor(0.5000).png,31.0,1110,2,37_101_0.5,37_101_,37,101,0.5,32
6881,1nrte,0.256,-1.2628783113146114,18.35699999809265,images/experiment/pair_101_64_out_tensor(0.3333).png,465.0,1111,2,101_64_0.33,101_64_,101,64,0.33,49
881,1nrte,0.268,-1.1921228201883258,17.552000000476834,images/experiment/pair_92_64_out_tensor(0.5000).png,329.0,1112,2,92_64_0.5,92_64_,92,64,0.5,44
10681,1nrte,0.728,1.520171006319286,20.25200000047684,images/experiment/pair_37_92_out_tensor(0.3333).png,305.0,1113,2,37_92_0.33,37_92_,37,92,0.33,28
3481,1nrte,0.566,0.5649718761144313,25.93200000047684,images/experiment/pair_5_41_out_tensor(0.3333).png,238.0,1114,2,5_41_0.33,5_41_,5,41,0.33,7
8681,1nrte,0.824,2.0862149353295703,23.23700000047684,images/experiment/pair_37_41_out_tensor(0.6667).png,84.0,1115,2,37_41_0.67,37_41_,37,41,0.67,21
3281,1nrte,0.804,1.968289116785761,21.947999999523162,images/experiment/41_start.png,206.0,1116,2,41,41,41,,,2
4881,1nrte,0.374,-0.5671159819061371,29.883000001907348,images/experiment/pair_101_64_out_tensor(0.5000).png,9.0,1117,2,101_64_0.5,101_64_,101,64,0.5,50
1681,1nrte,0.404,-0.39022725409042325,24.27,images/experiment/pair_37_57_out_tensor(0.6667).png,105.0,1118,2,37_57_0.67,37_57_,37,57,0.67,24
6081,1nrte,0.608,0.8126160950564307,51.09900000095367,images/experiment/pair_37_92_out_tensor(0.5000).png,387.0,1119,2,37_92_0.5,37_92_,37,92,0.5,29
5481,1nrte,0.382,-0.5199456544886134,23.03200000047684,images/experiment/pair_5_92_out_tensor(0.6667).png,99.0,1120,2,5_92_0.67,5_92_,5,92,0.67,15
6281,1nrte,0.794,1.9093262075138564,33.57900000095368,images/experiment/pair_37_41_out_tensor(0.5000).png,135.0,1121,2,37_41_0.5,37_41_,37,41,0.5,20
281,1nrte,0.278,-1.1331599109164212,17.536000001430512,images/experiment/pair_64_41_out_tensor(0.3333).png,461.0,1122,2,64_41_0.33,64_41_,64,41,0.33,34
4681,1nrte,0.256,-1.2628783113146114,22.122999999523163,images/experiment/pair_101_57_out_tensor(0.6667).png,128.0,1123,2,101_57_0.67,101_57_,101,57,0.67,48
9481,1nrte,0.316,-0.9091008556831838,16.022000000476837,images/experiment/pair_37_92_out_tensor(0.6667).png,392.0,1124,2,37_92_0.67,37_92_,37,92,0.67,30
7881,1nrte,0.582,0.6593125309494787,18.128999998569487,images/experiment/pair_5_41_out_tensor(0.5000).png,217.0,1125,2,5_41_0.5,5_41_,5,41,0.5,8
5281,1nrte,0.648,1.0484677321440492,22.172999999523164,images/experiment/pair_37_101_out_tensor(0.3333).png,412.0,1126,2,37_101_0.33,37_101_,37,101,0.33,31
3081,1nrte,0.708,1.402245187775477,20.509000000953673,images/experiment/pair_5_41_out_tensor(0.6667).png,97.0,1127,2,5_41_0.67,5_41_,5,41,0.67,9
7681,1nrte,0.624,0.9069567498914781,33.07700000047684,images/experiment/5_start.png,293.0,1128,2,5,5,5,,,0
5681,1nrte,0.244,-1.333633802440897,33.72899999856949,images/experiment/pair_92_57_out_tensor(0.6667).png,446.0,1129,2,92_57_0.67,92_57_,92,57,0.67,42
1281,1nrte,0.496,0.15223151121109912,18.310999999046327,images/experiment/pair_5_64_out_tensor(0.3333).png,248.0,1130,2,5_64_0.33,5_64_,5,64,0.33,10
10881,1nrte,0.28,-1.1213673290620403,24.519000000953675,images/experiment/pair_101_57_out_tensor(0.5000).png,54.0,1131,2,101_57_0.5,101_57_,101,57,0.5,47
6481,1nrte,0.268,-1.1921228201883258,27.53200000047684,images/experiment/pair_64_41_out_tensor(0.5000).png,281.0,1132,2,64_41_0.5,64_41_,64,41,0.5,35
2081,1nrte,0.16,-1.8289222403248957,25.382000000476843,images/experiment/pair_92_64_out_tensor(0.6667).png,111.0,1133,2,92_64_0.67,92_64_,92,64,0.67,45
8481,1nrte,0.528,0.3409128208811939,62.67600000143051,images/experiment/pair_101_92_out_tensor(0.5000).png,479.0,1134,2,101_92_0.5,101_92_,101,92,0.5,53
4281,1nrte,0.292,-1.0506118379357547,21.459000000953676,images/experiment/pair_92_64_out_tensor(0.3333).png,468.0,1135,2,92_64_0.33,92_64_,92,64,0.33,43
2481,1nrte,0.268,-1.1921228201883258,24.32799999952316,images/experiment/pair_101_57_out_tensor(0.3333).png,336.0,1136,2,101_57_0.33,101_57_,101,57,0.33,46
10481,1nrte,0.756,1.6852671522806189,18.34700000047684,images/experiment/pair_37_41_out_tensor(0.3333).png,498.0,1137,2,37_41_0.33,37_41_,37,41,0.33,19
9281,1nrte,0.338,-0.7793824552849936,14.505,images/experiment/pair_37_64_out_tensor(0.6667).png,318.0,1138,2,37_64_0.67,37_64_,37,64,0.67,27
1392,1z0ca,0.798,1.150348651816828,34.872000000476845,images/experiment/pair_5_64_out_tensor(0.3333).png,36.0,5,1,5_64_0.33,5_64_,5,64,0.33,10
3992,1z0ca,0.602,0.012455601111615392,29.24399999856949,images/experiment/pair_92_57_out_tensor(0.5000).png,167.0,6,1,92_57_0.5,92_57_,92,57,0.5,41
10992,1z0ca,0.714,0.6626802015145941,27.16799999952316,images/experiment/pair_101_57_out_tensor(0.5000).png,183.0,7,1,101_57_0.5,101_57_,101,57,0.5,47
2592,1z0ca,0.768,0.9761813481374587,39.96200000047684,images/experiment/pair_101_57_out_tensor(0.3333).png,470.0,8,1,101_57_0.33,101_57_,101,57,0.33,46
9792,1z0ca,0.71,0.6394578943573448,32.14200000047684,images/experiment/pair_101_92_out_tensor(0.3333).png,50.0,9,1,101_92_0.33,101_92_,101,92,0.33,52
5592,1z0ca,0.418,-1.0557705281218495,34.963000001907346,images/experiment/pair_5_92_out_tensor(0.6667).png,139.0,10,1,5_92_0.67,5_92_,5,92,0.67,15
392,1z0ca,0.434,-0.9628812994928526,30.42399999856949,images/experiment/pair_64_41_out_tensor(0.3333).png,281.0,11,1,64_41_0.33,64_41_,64,41,0.33,34
1192,1z0ca,0.806,1.1967932661313265,33.94799999952316,images/experiment/pair_5_101_out_tensor(0.3333).png,499.0,12,1,5_101_0.33,5_101_,5,101,0.33,16
5992,1z0ca,0.564,-0.20815631688225236,32.00399999856949,images/experiment/pair_64_57_out_tensor(0.5000).png,239.0,13,1,64_57_0.5,64_57_,64,57,0.5,38
8192,1z0ca,0.794,1.1271263446595787,33.162000000476844,images/experiment/pair_37_101_out_tensor(0.5000).png,206.0,14,1,37_101_0.5,37_101_,37,101,0.5,32
2192,1z0ca,0.534,-0.38232362056162167,30.108999998569487,images/experiment/pair_92_64_out_tensor(0.6667).png,101.0,15,1,92_64_0.67,92_64_,92,64,0.67,45
6192,1z0ca,0.726,0.7323471229863417,28.32600000143051,images/experiment/pair_37_92_out_tensor(0.5000).png,286.0,16,1,37_92_0.5,37_92_,37,92,0.5,29
792,1z0ca,0.848,1.4406274912824435,30.98700000047684,images/experiment/pair_5_92_out_tensor(0.3333).png,160.0,17,1,5_92_0.33,5_92_,5,92,0.33,13
2992,1z0ca,0.588,-0.06882247393875694,26.445,images/experiment/pair_64_57_out_tensor(0.3333).png,380.0,18,1,64_57_0.33,64_57_,64,57,0.33,37
9992,1z0ca,0.63,0.17501175121236007,28.109000000953674,images/experiment/pair_5_64_out_tensor(0.6667).png,130.0,19,1,5_64_0.67,5_64_,5,64,0.67,12
3592,1z0ca,0.786,1.0806817303450804,31.76700000047684,images/experiment/pair_5_41_out_tensor(0.3333).png,399.0,20,1,5_41_0.33,5_41_,5,41,0.33,7
7392,1z0ca,0.476,-0.7190470743417355,27.54600000143051,images/experiment/pair_5_101_out_tensor(0.6667).png,111.0,21,1,5_101_0.67,5_101_,5,101,0.67,18
3192,1z0ca,0.496,-0.6029355385554894,37.145,images/experiment/pair_5_41_out_tensor(0.6667).png,53.0,22,1,5_41_0.67,5_41_,5,41,0.67,9
8592,1z0ca,0.708,0.6278467407787202,26.12800000190735,images/experiment/pair_101_92_out_tensor(0.5000).png,429.0,23,1,101_92_0.5,101_92_,101,92,0.5,53
1992,1z0ca,0.512,-0.5100463099264925,49.345,images/experiment/pair_101_92_out_tensor(0.6667).png,256.0,24,1,101_92_0.67,101_92_,101,92,0.67,54
2392,1z0ca,0.698,0.5697909728855971,44.784000000953675,images/experiment/pair_5_64_out_tensor(0.5000).png,233.0,25,1,5_64_0.5,5_64_,5,64,0.5,11
4192,1z0ca,0.584,-0.09204478109600618,38.645,images/experiment/pair_101_64_out_tensor(0.6667).png,487.0,26,1,101_64_0.67,101_64_,101,64,0.67,51
3792,1z0ca,0.708,0.6278467407787202,33.405,images/experiment/pair_64_41_out_tensor(0.6667).png,162.0,27,1,64_41_0.67,64_41_,64,41,0.67,36
4392,1z0ca,0.47,-0.7538805350776094,62.22299999952316,images/experiment/pair_92_64_out_tensor(0.3333).png,16.0,28,1,92_64_0.33,92_64_,92,64,0.33,43
5392,1z0ca,0.902,1.7541286379053083,26.04299999952316,images/experiment/pair_37_101_out_tensor(0.3333).png,443.0,29,1,37_101_0.33,37_101_,37,101,0.33,31
4992,1z0ca,0.584,-0.09204478109600618,32.47,images/experiment/pair_101_64_out_tensor(0.5000).png,474.0,30,1,101_64_0.5,101_64_,101,64,0.5,50
4592,1z0ca,0.34,-1.5086055176882096,27.325,images/experiment/pair_5_101_out_tensor(0.5000).png,223.0,31,1,5_101_0.5,5_101_,5,101,0.5,17
6392,1z0ca,0.566,-0.19654516330362776,34.65300000190735,images/experiment/pair_37_41_out_tensor(0.5000).png,97.0,32,1,37_41_0.5,37_41_,37,41,0.5,20
7992,1z0ca,0.846,1.429016337703819,31.437999999523164,images/experiment/pair_5_41_out_tensor(0.5000).png,401.0,33,1,5_41_0.5,5_41_,5,41,0.5,8
2792,1z0ca,0.696,0.5581798193069725,76.20299999952316,images/experiment/pair_37_64_out_tensor(0.5000).png,261.0,34,1,37_64_0.5,37_64_,37,64,0.5,26
6592,1z0ca,0.524,-0.4403793884547447,38.62599999904633,images/experiment/pair_64_41_out_tensor(0.5000).png,396.0,35,1,64_41_0.5,64_41_,64,41,0.5,35
9192,1z0ca,0.594,-0.033989013202883084,40.965999999046325,images/experiment/pair_5_92_out_tensor(0.5000).png,461.0,36,1,5_92_0.5,5_92_,5,92,0.5,14
7792,1z0ca,1.0,2.3230751632579145,33.40299999952316,images/experiment/5_start.png,316.0,37,1,5,5,5,,,0
1592,1z0ca,0.69,0.5233463585710986,28.49100000143051,images/experiment/pair_37_64_out_tensor(0.3333).png,482.0,38,1,37_64_0.33,37_64_,37,64,0.33,25
3392,1z0ca,0.702,0.5930132800428464,43.38700000047684,images/experiment/41_start.png,123.0,39,1,41,41,41,,,2
192,1z0ca,0.546,-0.3126566990898739,113.44099999904633,images/experiment/64_start.png,31.0,40,1,64,64,64,,,4
7192,1z0ca,0.782,1.0574594231878311,34.42200000047684,images/experiment/92_start.png,255.0,41,1,92,92,92,,,5
592,1z0ca,0.626,0.15178944405511083,25.82799999952316,images/experiment/pair_37_57_out_tensor(0.3333).png,188.0,42,1,37_57_0.33,37_57_,37,57,0.33,22
8392,1z0ca,0.692,0.5349575121497232,36.06300000190735,images/experiment/57_start.png,423.0,43,1,57,57,57,,,3
10592,1z0ca,0.816,1.2548490340244496,27.38399999856949,images/experiment/pair_37_41_out_tensor(0.3333).png,340.0,44,1,37_41_0.33,37_41_,37,41,0.33,19
6792,1z0ca,0.566,-0.19654516330362776,22.626000001430512,images/experiment/pair_37_101_out_tensor(0.6667).png,204.0,45,1,37_101_0.67,37_101_,37,101,0.67,33
6992,1z0ca,0.46,-0.8119363029707325,39.26600000143051,images/experiment/pair_101_64_out_tensor(0.3333).png,263.0,46,1,101_64_0.33,101_64_,101,64,0.33,49
7592,1z0ca,0.516,-0.4868240027692432,28.33,images/experiment/pair_37_57_out_tensor(0.5000).png,195.0,47,1,37_57_0.5,37_57_,37,57,0.5,23
9592,1z0ca,0.504,-0.5564909242409909,25.36200000047684,images/experiment/pair_37_92_out_tensor(0.6667).png,29.0,48,1,37_92_0.67,37_92_,37,92,0.67,30
8992,1z0ca,0.57,-0.17332285614637852,40.42799999952316,images/experiment/37_start.png,49.0,49,1,37,37,37,,,1
10792,1z0ca,0.522,-0.45199054203336936,28.245,images/experiment/pair_37_92_out_tensor(0.3333).png,410.0,50,1,37_92_0.33,37_92_,37,92,0.33,28
10192,1z0ca,0.752,0.8832921195084618,27.38399999856949,images/experiment/pair_92_57_out_tensor(0.3333).png,194.0,51,1,92_57_0.33,92_57_,92,57,0.33,40
10392,1z0ca,0.546,-0.3126566990898739,28.40700000047684,images/experiment/101_start.png,456.0,52,1,101,101,101,,,6
1792,1z0ca,0.636,0.2098452119482339,170.24199999809264,images/experiment/pair_37_57_out_tensor(0.6667).png,135.0,53,1,37_57_0.67,37_57_,37,57,0.67,24
5192,1z0ca,0.578,-0.12687824183188004,38.64,images/experiment/pair_64_57_out_tensor(0.6667).png,58.0,54,1,64_57_0.67,64_57_,64,57,0.67,39
992,1z0ca,0.672,0.41884597636347703,50.827000000476836,images/experiment/pair_92_64_out_tensor(0.5000).png,191.0,55,1,92_64_0.5,92_64_,92,64,0.5,44
5792,1z0ca,0.62,0.11695598331923696,28.165,images/experiment/pair_92_57_out_tensor(0.6667).png,250.0,56,1,92_57_0.67,92_57_,92,57,0.67,42
4792,1z0ca,0.452,-0.858380917285231,50.907000000476835,images/experiment/pair_101_57_out_tensor(0.6667).png,241.0,57,1,101_57_0.67,101_57_,101,57,0.67,48
9392,1z0ca,0.536,-0.37071246698299704,29.262000000476842,images/experiment/pair_37_64_out_tensor(0.6667).png,26.0,58,1,37_64_0.67,37_64_,37,64,0.67,27
8792,1z0ca,0.722,0.7091248158290925,27.389000000953676,images/experiment/pair_37_41_out_tensor(0.6667).png,288.0,59,1,37_41_0.67,37_41_,37,41,0.67,21
4793,1z0ca,0.588,-0.06882247393875694,35.17599999904633,images/experiment/pair_101_57_out_tensor(0.6667).png,37.0,534,2,101_57_0.67,101_57_,101,57,0.67,48
8593,1z0ca,0.554,-0.26621208477537545,21.82200000047684,images/experiment/pair_101_92_out_tensor(0.5000).png,221.0,535,2,101_92_0.5,101_92_,101,92,0.5,53
3393,1z0ca,0.358,-1.404105135480588,26.532999999523163,images/experiment/41_start.png,93.0,536,2,41,41,41,,,2
5393,1z0ca,0.816,1.2548490340244496,33.618999998569485,images/experiment/pair_37_101_out_tensor(0.3333).png,113.0,537,2,37_101_0.33,37_101_,37,101,0.33,31
7793,1z0ca,0.98,2.2069636274716684,137.80799999952316,images/experiment/5_start.png,72.0,538,2,5,5,5,,,0
1393,1z0ca,0.642,0.24467867268410776,65.59700000047684,images/experiment/pair_5_64_out_tensor(0.3333).png,46.0,539,2,5_64_0.33,5_64_,5,64,0.33,10
4993,1z0ca,0.506,-0.5448797706623663,34.085,images/experiment/pair_101_64_out_tensor(0.5000).png,415.0,540,2,101_64_0.5,101_64_,101,64,0.5,50
5993,1z0ca,0.362,-1.3808828283233388,37.68800000190735,images/experiment/pair_64_57_out_tensor(0.5000).png,486.0,541,2,64_57_0.5,64_57_,64,57,0.5,38
3193,1z0ca,0.648,0.2795121334199816,23.164000000953674,images/experiment/pair_5_41_out_tensor(0.6667).png,368.0,542,2,5_41_0.67,5_41_,5,41,0.67,9
4193,1z0ca,0.28,-1.8569401250469482,20.422999999523164,images/experiment/pair_101_64_out_tensor(0.6667).png,181.0,543,2,101_64_0.67,101_64_,101,64,0.67,51
10593,1z0ca,0.738,0.8020140444580894,21.82799999952316,images/experiment/pair_37_41_out_tensor(0.3333).png,294.0,544,2,37_41_0.33,37_41_,37,41,0.33,19
3993,1z0ca,0.5,-0.5797132313982402,29.188000001907348,images/experiment/pair_92_57_out_tensor(0.5000).png,141.0,545,2,92_57_0.5,92_57_,92,57,0.5,41
4393,1z0ca,0.19,-2.379442036085056,50.30700000047684,images/experiment/pair_92_64_out_tensor(0.3333).png,28.0,546,2,92_64_0.33,92_64_,92,64,0.33,43
1193,1z0ca,0.536,-0.37071246698299704,24.959000000953676,images/experiment/pair_5_101_out_tensor(0.3333).png,100.0,547,2,5_101_0.33,5_101_,5,101,0.33,16
10793,1z0ca,0.638,0.22145636552685852,32.76700000047684,images/experiment/pair_37_92_out_tensor(0.3333).png,351.0,548,2,37_92_0.33,37_92_,37,92,0.33,28
9993,1z0ca,0.51,-0.5216574635051171,24.16799999952316,images/experiment/pair_5_64_out_tensor(0.6667).png,447.0,549,2,5_64_0.67,5_64_,5,64,0.67,12
3793,1z0ca,0.212,-2.251719346720185,20.82199999809265,images/experiment/pair_64_41_out_tensor(0.6667).png,462.0,550,2,64_41_0.67,64_41_,64,41,0.67,36
7593,1z0ca,0.484,-0.6726024600272371,25.507000000476843,images/experiment/pair_37_57_out_tensor(0.5000).png,52.0,551,2,37_57_0.5,37_57_,37,57,0.5,23
8993,1z0ca,0.722,0.7091248158290925,25.026999998092652,images/experiment/37_start.png,219.0,552,2,37,37,37,,,1
6993,1z0ca,0.458,-0.8235474565493571,22.305999999046332,images/experiment/pair_101_64_out_tensor(0.3333).png,187.0,553,2,101_64_0.33,101_64_,101,64,0.33,49
9593,1z0ca,0.782,1.0574594231878311,23.39099999904633,images/experiment/pair_37_92_out_tensor(0.6667).png,322.0,554,2,37_92_0.67,37_92_,37,92,0.67,30
2393,1z0ca,0.62,0.11695598331923696,21.834000000953676,images/experiment/pair_5_64_out_tensor(0.5000).png,473.0,555,2,5_64_0.5,5_64_,5,64,0.5,11
793,1z0ca,0.95,2.032796323792299,31.66599999904633,images/experiment/pair_5_92_out_tensor(0.3333).png,276.0,556,2,5_92_0.33,5_92_,5,92,0.33,13
8393,1z0ca,0.454,-0.8467697637066064,21.74800000190735,images/experiment/57_start.png,459.0,557,2,57,57,57,,,3
5593,1z0ca,0.762,0.9413478874015849,26.90599999904633,images/experiment/pair_5_92_out_tensor(0.6667).png,492.0,558,2,5_92_0.67,5_92_,5,92,0.67,15
7393,1z0ca,0.566,-0.19654516330362776,28.621000001430513,images/experiment/pair_5_101_out_tensor(0.6667).png,24.0,559,2,5_101_0.67,5_101_,5,101,0.67,18
593,1z0ca,0.754,0.8949032730870864,24.649000000953674,images/experiment/pair_37_57_out_tensor(0.3333).png,377.0,560,2,37_57_0.33,37_57_,37,57,0.33,22
9193,1z0ca,0.894,1.7076840235908097,34.385,images/experiment/pair_5_92_out_tensor(0.5000).png,238.0,561,2,5_92_0.5,5_92_,5,92,0.5,14
2993,1z0ca,0.43,-0.9861036066501018,19.565,images/experiment/pair_64_57_out_tensor(0.3333).png,88.0,562,2,64_57_0.33,64_57_,64,57,0.33,37
10193,1z0ca,0.812,1.2316267268672003,30.64200000047684,images/experiment/pair_92_57_out_tensor(0.3333).png,448.0,563,2,92_57_0.33,92_57_,92,57,0.33,40
6593,1z0ca,0.284,-1.833717817889699,20.122000000476838,images/experiment/pair_64_41_out_tensor(0.5000).png,363.0,564,2,64_41_0.5,64_41_,64,41,0.5,35
10993,1z0ca,0.53,-0.4055459277188709,43.827999999523165,images/experiment/pair_101_57_out_tensor(0.5000).png,185.0,565,2,101_57_0.5,101_57_,101,57,0.5,47
1993,1z0ca,0.774,1.0110148088733326,21.68600000143051,images/experiment/pair_101_92_out_tensor(0.6667).png,324.0,566,2,101_92_0.67,101_92_,101,92,0.67,54
2593,1z0ca,0.382,-1.2647712925370926,22.925,images/experiment/pair_101_57_out_tensor(0.3333).png,360.0,567,2,101_57_0.33,101_57_,101,57,0.33,46
6393,1z0ca,0.618,0.10534482974061234,28.14700000047684,images/experiment/pair_37_41_out_tensor(0.5000).png,422.0,568,2,37_41_0.5,37_41_,37,41,0.5,20
1793,1z0ca,0.822,1.2896824947603234,27.85,images/experiment/pair_37_57_out_tensor(0.6667).png,74.0,569,2,37_57_0.67,37_57_,37,57,0.67,24
7993,1z0ca,0.636,0.2098452119482339,23.94599999904633,images/experiment/pair_5_41_out_tensor(0.5000).png,450.0,570,2,5_41_0.5,5_41_,5,41,0.5,8
193,1z0ca,0.314,-1.6595505142103297,27.525,images/experiment/64_start.png,218.0,571,2,64,64,64,,,4
6793,1z0ca,0.5,-0.5797132313982402,29.085,images/experiment/pair_37_101_out_tensor(0.6667).png,293.0,572,2,37_101_0.67,37_101_,37,101,0.67,33
3593,1z0ca,0.666,0.3840125156276032,25.56599999904633,images/experiment/pair_5_41_out_tensor(0.3333).png,161.0,573,2,5_41_0.33,5_41_,5,41,0.33,7
8793,1z0ca,0.726,0.7323471229863417,23.406000001430513,images/experiment/pair_37_41_out_tensor(0.6667).png,92.0,574,2,37_41_0.67,37_41_,37,41,0.67,21
2793,1z0ca,0.388,-1.2299378318012189,31.645,images/experiment/pair_37_64_out_tensor(0.5000).png,229.0,575,2,37_64_0.5,37_64_,37,64,0.5,26
9793,1z0ca,0.38,-1.2763824461157174,26.825,images/experiment/pair_101_92_out_tensor(0.3333).png,127.0,576,2,101_92_0.33,101_92_,101,92,0.33,52
1593,1z0ca,0.488,-0.6493801528699878,25.348000001907348,images/experiment/pair_37_64_out_tensor(0.3333).png,325.0,577,2,37_64_0.33,37_64_,37,64,0.33,25
7193,1z0ca,0.792,1.1155151910809542,28.069000000953675,images/experiment/92_start.png,131.0,578,2,92,92,92,,,5
6193,1z0ca,0.53,-0.4055459277188709,34.004000000953674,images/experiment/pair_37_92_out_tensor(0.5000).png,389.0,579,2,37_92_0.5,37_92_,37,92,0.5,29
2193,1z0ca,0.476,-0.7190470743417355,57.102000000476835,images/experiment/pair_92_64_out_tensor(0.6667).png,27.0,580,2,92_64_0.67,92_64_,92,64,0.67,45
9393,1z0ca,0.238,-2.100774350198065,36.18199999809265,images/experiment/pair_37_64_out_tensor(0.6667).png,412.0,581,2,37_64_0.67,37_64_,37,64,0.67,27
993,1z0ca,0.17,-2.4955535718713024,24.004000000953674,images/experiment/pair_92_64_out_tensor(0.5000).png,246.0,582,2,92_64_0.5,92_64_,92,64,0.5,44
393,1z0ca,0.344,-1.4853832105309603,31.504000000953674,images/experiment/pair_64_41_out_tensor(0.3333).png,23.0,583,2,64_41_0.33,64_41_,64,41,0.33,34
5793,1z0ca,0.792,1.1155151910809542,22.842999999523162,images/experiment/pair_92_57_out_tensor(0.6667).png,302.0,584,2,92_57_0.67,92_57_,92,57,0.67,42
5193,1z0ca,0.666,0.3840125156276032,23.48599999904633,images/experiment/pair_64_57_out_tensor(0.6667).png,179.0,585,2,64_57_0.67,64_57_,64,57,0.67,39
4593,1z0ca,0.762,0.9413478874015849,28.387000000476842,images/experiment/pair_5_101_out_tensor(0.5000).png,272.0,586,2,5_101_0.5,5_101_,5,101,0.5,17
8193,1z0ca,0.582,-0.1036559346746308,22.52,images/experiment/pair_37_101_out_tensor(0.5000).png,320.0,587,2,37_101_0.5,37_101_,37,101,0.5,32
10393,1z0ca,0.448,-0.8816032244424803,28.62800000190735,images/experiment/101_start.png,134.0,588,2,101,101,101,,,6
6410,2yzc5,0.488,-0.24024519690920237,35.646000000238416,images/experiment/pair_64_41_out_tensor(0.5000).png,49.0,5,1,64_41_0.5,64_41_,64,41,0.5,35
2410,2yzc5,0.66,0.7914023576804742,27.336000000238418,images/experiment/pair_101_57_out_tensor(0.3333).png,2.0,6,1,101_57_0.33,101_57_,101,57,0.33,46
10210,2yzc5,0.696,1.007328590036453,24.455999999642373,images/experiment/101_start.png,142.0,7,1,101,101,101,,,6
5810,2yzc5,0.478,-0.30022470589697425,23.505,images/experiment/pair_64_57_out_tensor(0.5000).png,291.0,8,1,64_57_0.5,64_57_,64,57,0.5,38
8410,2yzc5,0.442,-0.5161509382529531,21.584000000357626,images/experiment/pair_101_92_out_tensor(0.5000).png,337.0,9,1,101_92_0.5,101_92_,101,92,0.5,53
3010,2yzc5,0.362,-0.9959870101551282,23.580999999642373,images/experiment/pair_5_41_out_tensor(0.6667).png,359.0,10,1,5_41_0.67,5_41_,5,41,0.67,9
4610,2yzc5,0.522,-0.036314866350777956,38.14699999988079,images/experiment/pair_101_57_out_tensor(0.6667).png,78.0,11,1,101_57_0.67,101_57_,101,57,0.67,48
2010,2yzc5,0.666,0.8273900630731372,25.56800000011921,images/experiment/pair_92_64_out_tensor(0.6667).png,247.0,12,1,92_64_0.67,92_64_,92,64,0.67,45
610,2yzc5,0.356,-1.0319747155477914,21.101000000238418,images/experiment/pair_5_92_out_tensor(0.3333).png,56.0,13,1,5_92_0.33,5_92_,5,92,0.33,13
5610,2yzc5,0.408,-0.7200812688113776,22.92800000011921,images/experiment/pair_92_57_out_tensor(0.6667).png,55.0,14,1,92_57_0.67,92_57_,92,57,0.67,42
7210,2yzc5,0.704,1.0553121972266704,25.906000000238418,images/experiment/pair_5_101_out_tensor(0.6667).png,64.0,15,1,5_101_0.67,5_101_,5,101,0.67,18
810,2yzc5,0.62,0.5514843217293866,22.14300000011921,images/experiment/pair_92_64_out_tensor(0.5000).png,239.0,16,1,92_64_0.5,92_64_,92,64,0.5,44
4410,2yzc5,0.572,0.2635826785880815,22.62399999976158,images/experiment/pair_5_101_out_tensor(0.5000).png,495.0,17,1,5_101_0.5,5_101_,5,101,0.5,17
1010,2yzc5,0.552,0.14362366061253773,23.51100000023842,images/experiment/pair_5_101_out_tensor(0.3333).png,204.0,18,1,5_101_0.33,5_101_,5,101,0.33,16
3810,2yzc5,0.534,0.035660544434548316,20.462000000476838,images/experiment/pair_92_57_out_tensor(0.5000).png,363.0,19,1,92_57_0.5,92_57_,92,57,0.5,41
7610,2yzc5,0.672,0.8633777684658004,28.450999999642374,images/experiment/5_start.png,471.0,20,1,5,5,5,,,0
6810,2yzc5,0.706,1.0673080990242247,27.41699999988079,images/experiment/pair_101_64_out_tensor(0.3333).png,57.0,21,1,101_64_0.33,101_64_,101,64,0.33,49
7810,2yzc5,0.514,-0.08429847354099547,23.26599999964237,images/experiment/pair_5_41_out_tensor(0.5000).png,304.0,22,1,5_41_0.5,5_41_,5,41,0.5,8
10610,2yzc5,0.504,-0.14427798252876736,43.345,images/experiment/pair_37_92_out_tensor(0.3333).png,37.0,23,1,37_92_0.33,37_92_,37,92,0.33,28
8610,2yzc5,0.464,-0.3841960184798549,29.81900000035763,images/experiment/pair_37_41_out_tensor(0.6667).png,210.0,24,1,37_41_0.67,37_41_,37,41,0.67,21
2810,2yzc5,0.57,0.2515867767905271,20.466000000238417,images/experiment/pair_64_57_out_tensor(0.3333).png,446.0,25,1,64_57_0.33,64_57_,64,57,0.33,37
3410,2yzc5,0.43,-0.5881263490382793,24.45699999988079,images/experiment/pair_5_41_out_tensor(0.3333).png,292.0,26,1,5_41_0.33,5_41_,5,41,0.33,7
7410,2yzc5,0.504,-0.14427798252876736,28.46699999988079,images/experiment/pair_37_57_out_tensor(0.5000).png,220.0,27,1,37_57_0.5,37_57_,37,57,0.5,23
210,2yzc5,0.548,0.11963185701742896,21.417000000476843,images/experiment/pair_64_41_out_tensor(0.3333).png,118.0,28,1,64_41_0.33,64_41_,64,41,0.33,34
10410,2yzc5,0.526,-0.0123230627556692,21.98800000011921,images/experiment/pair_37_41_out_tensor(0.3333).png,298.0,29,1,37_41_0.33,37_41_,37,41,0.33,19
6610,2yzc5,0.682,0.9233572774535723,33.50399999976158,images/experiment/pair_37_101_out_tensor(0.6667).png,9.0,30,1,37_101_0.67,37_101_,37,101,0.67,33
10810,2yzc5,0.608,0.4795089109440603,34.86100000023842,images/experiment/pair_101_57_out_tensor(0.5000).png,214.0,31,1,101_57_0.5,101_57_,101,57,0.5,47
3610,2yzc5,0.458,-0.42018372387251807,24.54299999952316,images/experiment/pair_64_41_out_tensor(0.6667).png,106.0,32,1,64_41_0.67,64_41_,64,41,0.67,36
9410,2yzc5,0.514,-0.08429847354099547,26.46300000011921,images/experiment/pair_37_92_out_tensor(0.6667).png,119.0,33,1,37_92_0.67,37_92_,37,92,0.67,30
9210,2yzc5,0.646,0.7074310450975935,23.538999999761582,images/experiment/pair_37_64_out_tensor(0.6667).png,140.0,34,1,37_64_0.67,37_64_,37,64,0.67,27
410,2yzc5,0.5,-0.1682697861238761,29.220999999642373,images/experiment/pair_37_57_out_tensor(0.3333).png,133.0,35,1,37_57_0.33,37_57_,37,57,0.33,22
4210,2yzc5,0.602,0.4435212055513972,45.34600000023842,images/experiment/pair_92_64_out_tensor(0.3333).png,61.0,36,1,92_64_0.33,92_64_,92,64,0.33,43
9610,2yzc5,0.746,1.3072261349753125,30.69400000035763,images/experiment/pair_101_92_out_tensor(0.3333).png,116.0,37,1,101_92_0.33,101_92_,101,92,0.33,52
8810,2yzc5,0.382,-0.8760279921795844,21.99199999988079,images/experiment/37_start.png,407.0,38,1,37,37,37,,,1
1410,2yzc5,0.518,-0.060306669945886716,24.933000000119208,images/experiment/pair_37_64_out_tensor(0.3333).png,58.0,39,1,37_64_0.33,37_64_,37,64,0.33,25
6010,2yzc5,0.626,0.5874720271220497,23.18100000023842,images/experiment/pair_37_92_out_tensor(0.5000).png,1.0,40,1,37_92_0.5,37_92_,37,92,0.5,29
4010,2yzc5,0.71,1.0912999026193335,21.42300000011921,images/experiment/pair_101_64_out_tensor(0.6667).png,100.0,41,1,101_64_0.67,101_64_,101,64,0.67,51
1210,2yzc5,0.362,-0.9959870101551282,20.85900000035763,images/experiment/pair_5_64_out_tensor(0.3333).png,282.0,42,1,5_64_0.33,5_64_,5,64,0.33,10
6210,2yzc5,0.304,-1.3438681622842052,21.1,images/experiment/pair_37_41_out_tensor(0.5000).png,308.0,43,1,37_41_0.5,37_41_,37,41,0.5,20
4810,2yzc5,0.766,1.4271851529508561,34.46300000011921,images/experiment/pair_101_64_out_tensor(0.5000).png,16.0,44,1,101_64_0.5,101_64_,101,64,0.5,50
10,2yzc5,0.538,0.05965234802965707,22.14099999964237,images/experiment/64_start.png,143.0,45,1,64,64,64,,,4
3210,2yzc5,0.494,-0.20425749151653924,27.42800000011921,images/experiment/41_start.png,75.0,46,1,41,41,41,,,2
8210,2yzc5,0.578,0.29957038398074465,25.41400000035763,images/experiment/57_start.png,487.0,47,1,57,57,57,,,3
7010,2yzc5,0.416,-0.67209766162116,36.388000000119206,images/experiment/92_start.png,97.0,48,1,92,92,92,,,5
5210,2yzc5,0.558,0.17961136600520086,59.095,images/experiment/pair_37_101_out_tensor(0.3333).png,188.0,49,1,37_101_0.33,37_101_,37,101,0.33,31
