"success","trial_type","trial_index","time_elapsed","internal_node_id","id","date","time","version","timeout","failed_images","failed_audio","failed_video","rt","stimulus","response","slider_start","image_name","view_history","value","thumbnail_name","attention_check","calculated_reaction_time","onset_time","question_order"
"true","fullscreen","0","6403","0.0-0.0","520tj","20210930","1404","V4-20210927","","","","","","","","","","","","","","","",""
"true","preload","1","9819","0.0-1.0","520tj","20210930","1404","V4-20210927","false","[]","[]","[]","","","","","","","","","","","",""
"","html-button-response","2","33488","0.0-2.0","520tj","20210930","1404","V4-20210927","","","","","23665.5","
        <div class=""consentBox"">
        <h1>Consent to Participate in the Aesthetics Study</h1>

        <p>This is a psychology experiment being conducted by Dr. Peter Dayan, 
        director of the Max Planck Institute for Biological Cybernetics, and the 
        members of his lab. In order to consent to participate, you MUST meet the 
        following criteria:</p>

        <p>
        - 18 years of age or older<br>
        - Fluent speaker of English<br>
        - Have not previously participated in this experiment<br></p>

        <p>This study is designed to look at how people learn how to make decisions 
        to accomplish their goals. In this task, you will be asked to make choices, 
        play games, and answer questions related to those games. The study will take 
        about 40 minutes and will pay $12/hour plus a attention-dependent bonus of 
        up to a maximum of $1. The performance bonus is explained in more detail in 
        the instructions that follow.</p> 

        <p>Your participation in this research is voluntary. You may refrain from 
        answering any questions that make you uncomfortable and may withdraw your 
        participation at any time without penalty by exiting this task and alerting 
        the experimenter. You may choose not to complete certain parts of the task 
        or answer certain questions. You may contact us at the address provided 
        below if you have additional questions or concerns.</p> 

        <p>Other than monetary compensation, participating in this study will 
        provide no direct benefits to you. But we hope that this research will 
        benefit society at large by contributing towards establishing a scientific 
        foundation for improving people's learning and cognitive control abilities.</p>

        <p>Your online username may be connected to your individual responses, but 
        we will not be asking for any additional personally identifying information, 
        and we will handle responses as confidentially as possible. We cannot however 
        guarantee the confidentiality of information transmitted over the Internet. 
        We will be keeping de-identified data collected as part of this experiment 
        indefinitely. Data used in scientific publications will remain completely 
        anonymous.</p>

        <p>If you have any questions about the study, feel free to contact our lab. 
        Dr. Dayan and his lab members can be reached at kyblab.tuebingen+aesthetics@gmail.com</p>

        <p>By selecting the 'consent' option below, I acknowledge that I am 18 years or 
        older, that I am a fluent speaker of English, that I have read this consent 
        form, and that I agree to take part in the research.</p>
        </div>
    ","0","","","","","","","","",""
"","html-button-response","3","71356","0.0-3.0","520tj","20210930","1404","V4-20210927","","","","","37863.60000000149","
        <div class=""introBox"">
        <h1>Overview</h1>

        <p>Thank you for participating in our study.<br> 
        This study consists of four main parts and will take about 45 minutes in
        total to complete.</p>

        <p>In the first part, you will see a series of images. We will ask you
        to tell us your opinion on each of them. <i>(~ 7 min)</i></p>

        <p>In the second part, we will show you the images from the first part again.
        You will be free to view each image for as long as you want before moving
        on to the next. <i>(15 min)</i></p>
        
        <p>The third part will be the same task as the first part. <i>(~ 7 min)</i></p>
        
        <p>At the end of the study, we will also ask you some questions about
        yourself. <i>(~ 10 min)</i></p>

        <p>We will give you detailed instructions before the start of each part of 
        the study.<br> 
        We ask you not to take breaks during each of the study's individual parts. 
        Please feel free to take breaks as needed between the three parts of this 
        study.</p>
        
        <p>Click on the button below to start the experiment.</p>
        </div>","0","","","","","","","","",""
"","html-button-response","4","94291","0.0-4.0","520tj","20210930","1404","V4-20210927","","","","","22932.60000000149","
        <div class=""introBox"">
        <h1>Rating</h1>

        <p>In the first part of the study, you will rate several different images 
        according to how much you like them. You will use a slider ranging from
        'not at all' to 'very much' to indicate how much you like each image. Please
        try to use the full range of the slider. That is, rate the image you like
        the least 'not at all' and the image you liked the most 'very much'.</p>

        <p>Focus on your own impression. It does not matter how others would judge 
        them. It also does not matter what the image depicts. Simply tell us how 
        much you like the image.<br>
        Again, there are no right or wrong answers. We simply want to know your 
        personal opinion.</p>

        <p>Click on 'Continue' to start the ratings.</p>
        </div>","0","","","","","","","","",""
"","html-slider-response","5","101980","0.0-5.0-0.0","520tj","20210930","1404","V4-20210927","","","","","7652.60000000149","<img src='images/experiment/pair_64_57_out_tensor(0.5000).png' height = '350'><br>How much do you like this image?","466","362","images/experiment/pair_64_57_out_tensor(0.5000).png","","","","","","",""
"","html-slider-response","6","112328","0.0-5.0-0.1","520tj","20210930","1404","V4-20210927","","","","","10338.199999999255","<img src='images/experiment/pair_37_92_out_tensor(0.3333).png' height = '350'><br>How much do you like this image?","236","304","images/experiment/pair_37_92_out_tensor(0.3333).png","","","","","","",""
"","html-slider-response","7","118337","0.0-5.0-0.2","520tj","20210930","1404","V4-20210927","","","","","5997.10000000149","<img src='images/experiment/pair_101_92_out_tensor(0.5000).png' height = '350'><br>How much do you like this image?","280","481","images/experiment/pair_101_92_out_tensor(0.5000).png","","","","","","",""
"","html-slider-response","8","122207","0.0-5.0-0.3","520tj","20210930","1404","V4-20210927","","","","","3861.89999999851","<img src='images/experiment/pair_64_57_out_tensor(0.3333).png' height = '350'><br>How much do you like this image?","454","372","images/experiment/pair_64_57_out_tensor(0.3333).png","","","","","","",""
"","html-slider-response","9","127231","0.0-5.0-0.4","520tj","20210930","1404","V4-20210927","","","","","5018.89999999851","<img src='images/experiment/pair_101_92_out_tensor(0.6667).png' height = '350'><br>How much do you like this image?","354","447","images/experiment/pair_101_92_out_tensor(0.6667).png","","","","","","",""
"","html-slider-response","10","131159","0.0-5.0-0.5","520tj","20210930","1404","V4-20210927","","","","","3919.599999997765","<img src='images/experiment/37_start.png' height = '350'><br>How much do you like this image?","140","480","images/experiment/37_start.png","","","","","","",""
"","html-slider-response","11","134584","0.0-5.0-0.6","520tj","20210930","1404","V4-20210927","","","","","3415.7999999970198","<img src='images/experiment/pair_101_92_out_tensor(0.3333).png' height = '350'><br>How much do you like this image?","460","383","images/experiment/pair_101_92_out_tensor(0.3333).png","","","","","","",""
"","html-slider-response","12","138114","0.0-5.0-0.7","520tj","20210930","1404","V4-20210927","","","","","3518.900000002235","<img src='images/experiment/pair_37_41_out_tensor(0.3333).png' height = '350'><br>How much do you like this image?","415","171","images/experiment/pair_37_41_out_tensor(0.3333).png","","","","","","",""
"","html-slider-response","13","144008","0.0-5.0-0.8","520tj","20210930","1404","V4-20210927","","","","","5885.800000000745","<img src='images/experiment/pair_64_41_out_tensor(0.5000).png' height = '350'><br>How much do you like this image?","223","272","images/experiment/pair_64_41_out_tensor(0.5000).png","","","","","","",""
"","html-slider-response","14","147769","0.0-5.0-0.9","520tj","20210930","1404","V4-20210927","","","","","3751.39999999851","<img src='images/experiment/pair_37_101_out_tensor(0.6667).png' height = '350'><br>How much do you like this image?","270","443","images/experiment/pair_37_101_out_tensor(0.6667).png","","","","","","",""
"","html-slider-response","15","151307","0.0-5.0-0.10","520tj","20210930","1404","V4-20210927","","","","","3528.89999999851","<img src='images/experiment/pair_5_41_out_tensor(0.3333).png' height = '350'><br>How much do you like this image?","492","81","images/experiment/pair_5_41_out_tensor(0.3333).png","","","","","","",""
"","html-slider-response","16","156654","0.0-5.0-0.11","520tj","20210930","1404","V4-20210927","","","","","5338.79999999702","<img src='images/experiment/pair_92_64_out_tensor(0.5000).png' height = '350'><br>How much do you like this image?","450","186","images/experiment/pair_92_64_out_tensor(0.5000).png","","","","","","",""
"","html-slider-response","17","159849","0.0-5.0-0.12","520tj","20210930","1404","V4-20210927","","","","","3186.400000002235","<img src='images/experiment/pair_37_101_out_tensor(0.5000).png' height = '350'><br>How much do you like this image?","498","207","images/experiment/pair_37_101_out_tensor(0.5000).png","","","","","","",""
"","html-slider-response","18","162834","0.0-5.0-0.13","520tj","20210930","1404","V4-20210927","","","","","2975.10000000149","<img src='images/experiment/pair_101_57_out_tensor(0.3333).png' height = '350'><br>How much do you like this image?","481","76","images/experiment/pair_101_57_out_tensor(0.3333).png","","","","","","",""
"","html-slider-response","19","165963","0.0-5.0-0.14","520tj","20210930","1404","V4-20210927","","","","","3121.5","<img src='images/experiment/41_start.png' height = '350'><br>How much do you like this image?","46","492","images/experiment/41_start.png","","","","","","",""
"","html-slider-response","20","170157","0.0-5.0-0.15","520tj","20210930","1404","V4-20210927","","","","","4190.400000002235","<img src='images/experiment/pair_64_57_out_tensor(0.6667).png' height = '350'><br>How much do you like this image?","182","143","images/experiment/pair_64_57_out_tensor(0.6667).png","","","","","","",""
"","html-slider-response","21","173871","0.0-5.0-0.16","520tj","20210930","1404","V4-20210927","","","","","3708.699999999255","<img src='images/experiment/pair_37_92_out_tensor(0.6667).png' height = '350'><br>How much do you like this image?","112","208","images/experiment/pair_37_92_out_tensor(0.6667).png","","","","","","",""
"","html-slider-response","22","177074","0.0-5.0-0.17","520tj","20210930","1404","V4-20210927","","","","","3197.800000000745","<img src='images/experiment/pair_5_92_out_tensor(0.5000).png' height = '350'><br>How much do you like this image?","28","445","images/experiment/pair_5_92_out_tensor(0.5000).png","","","","","","",""
"","html-slider-response","23","180429","0.0-5.0-0.18","520tj","20210930","1404","V4-20210927","","","","","3350.7999999970198","<img src='images/experiment/pair_5_101_out_tensor(0.6667).png' height = '350'><br>How much do you like this image?","128","346","images/experiment/pair_5_101_out_tensor(0.6667).png","","","","","","",""
"","html-slider-response","24","184528","0.0-5.0-0.19","520tj","20210930","1404","V4-20210927","","","","","4095.599999997765","<img src='images/experiment/pair_37_64_out_tensor(0.6667).png' height = '350'><br>How much do you like this image?","167","335","images/experiment/pair_37_64_out_tensor(0.6667).png","","","","","","",""
"","html-slider-response","25","188122","0.0-5.0-0.20","520tj","20210930","1404","V4-20210927","","","","","3584.300000000745","<img src='images/experiment/pair_101_64_out_tensor(0.6667).png' height = '350'><br>How much do you like this image?","31","321","images/experiment/pair_101_64_out_tensor(0.6667).png","","","","","","",""
"","html-slider-response","26","190883","0.0-5.0-0.21","520tj","20210930","1404","V4-20210927","","","","","2751.89999999851","<img src='images/experiment/64_start.png' height = '350'><br>How much do you like this image?","2","449","images/experiment/64_start.png","","","","","","",""
"","html-slider-response","27","194127","0.0-5.0-0.22","520tj","20210930","1404","V4-20210927","","","","","3236.60000000149","<img src='images/experiment/pair_37_57_out_tensor(0.3333).png' height = '350'><br>How much do you like this image?","340","291","images/experiment/pair_37_57_out_tensor(0.3333).png","","","","","","",""
"","html-slider-response","28","197515","0.0-5.0-0.23","520tj","20210930","1404","V4-20210927","","","","","3382.699999999255","<img src='images/experiment/pair_37_41_out_tensor(0.6667).png' height = '350'><br>How much do you like this image?","122","138","images/experiment/pair_37_41_out_tensor(0.6667).png","","","","","","",""
"","html-slider-response","29","200690","0.0-5.0-0.24","520tj","20210930","1404","V4-20210927","","","","","3165.900000002235","<img src='images/experiment/101_start.png' height = '350'><br>How much do you like this image?","232","465","images/experiment/101_start.png","","","","","","",""
"","html-slider-response","30","203989","0.0-5.0-0.25","520tj","20210930","1404","V4-20210927","","","","","3287.2999999970198","<img src='images/experiment/57_start.png' height = '350'><br>How much do you like this image?","226","417","images/experiment/57_start.png","","","","","","",""
"","html-slider-response","31","207718","0.0-5.0-0.26","520tj","20210930","1404","V4-20210927","","","","","3721.89999999851","<img src='images/experiment/pair_92_57_out_tensor(0.6667).png' height = '350'><br>How much do you like this image?","282","148","images/experiment/pair_92_57_out_tensor(0.6667).png","","","","","","",""
"","html-slider-response","32","211457","0.0-5.0-0.27","520tj","20210930","1404","V4-20210927","","","","","3728.099999997765","<img src='images/experiment/pair_92_64_out_tensor(0.6667).png' height = '350'><br>How much do you like this image?","283","231","images/experiment/pair_92_64_out_tensor(0.6667).png","","","","","","",""
"","html-slider-response","33","216427","0.0-5.0-0.28","520tj","20210930","1404","V4-20210927","","","","","4957.89999999851","<img src='images/experiment/pair_37_64_out_tensor(0.5000).png' height = '350'><br>How much do you like this image?","307","278","images/experiment/pair_37_64_out_tensor(0.5000).png","","","","","","",""
"","html-slider-response","34","219983","0.0-5.0-0.29","520tj","20210930","1404","V4-20210927","","","","","3549.300000000745","<img src='images/experiment/pair_5_101_out_tensor(0.3333).png' height = '350'><br>How much do you like this image?","454","326","images/experiment/pair_5_101_out_tensor(0.3333).png","","","","","","",""
"","html-slider-response","35","223489","0.0-5.0-0.30","520tj","20210930","1404","V4-20210927","","","","","3498.800000000745","<img src='images/experiment/pair_37_57_out_tensor(0.6667).png' height = '350'><br>How much do you like this image?","454","10","images/experiment/pair_37_57_out_tensor(0.6667).png","","","","","","",""
"","html-slider-response","36","226894","0.0-5.0-0.31","520tj","20210930","1404","V4-20210927","","","","","3398.60000000149","<img src='images/experiment/pair_64_41_out_tensor(0.6667).png' height = '350'><br>How much do you like this image?","118","234","images/experiment/pair_64_41_out_tensor(0.6667).png","","","","","","",""
"","html-slider-response","37","229815","0.0-5.0-0.32","520tj","20210930","1404","V4-20210927","","","","","2912","<img src='images/experiment/pair_37_41_out_tensor(0.5000).png' height = '350'><br>How much do you like this image?","101","369","images/experiment/pair_37_41_out_tensor(0.5000).png","","","","","","",""
"","html-slider-response","38","233178","0.0-5.0-0.33","520tj","20210930","1404","V4-20210927","","","","","3355.89999999851","<img src='images/experiment/pair_5_64_out_tensor(0.5000).png' height = '350'><br>How much do you like this image?","229","179","images/experiment/pair_5_64_out_tensor(0.5000).png","","","","","","",""
"","html-slider-response","39","236841","0.0-5.0-0.34","520tj","20210930","1404","V4-20210927","","","","","3655.5","<img src='images/experiment/pair_37_57_out_tensor(0.5000).png' height = '350'><br>How much do you like this image?","227","39","images/experiment/pair_37_57_out_tensor(0.5000).png","","","","","","",""
"","html-slider-response","40","240306","0.0-5.0-0.35","520tj","20210930","1404","V4-20210927","","","","","3459.89999999851","<img src='images/experiment/pair_5_101_out_tensor(0.5000).png' height = '350'><br>How much do you like this image?","358","195","images/experiment/pair_5_101_out_tensor(0.5000).png","","","","","","",""
"","html-slider-response","41","243749","0.0-5.0-0.36","520tj","20210930","1404","V4-20210927","","","","","3430.10000000149","<img src='images/experiment/pair_92_57_out_tensor(0.3333).png' height = '350'><br>How much do you like this image?","348","256","images/experiment/pair_92_57_out_tensor(0.3333).png","","","","","","",""
"","html-slider-response","42","247106","0.0-5.0-0.37","520tj","20210930","1404","V4-20210927","","","","","3347.5","<img src='images/experiment/pair_5_92_out_tensor(0.6667).png' height = '350'><br>How much do you like this image?","283","423","images/experiment/pair_5_92_out_tensor(0.6667).png","","","","","","",""
"","html-slider-response","43","250425","0.0-5.0-0.38","520tj","20210930","1404","V4-20210927","","","","","3310.89999999851","<img src='images/experiment/pair_5_92_out_tensor(0.3333).png' height = '350'><br>How much do you like this image?","349","392","images/experiment/pair_5_92_out_tensor(0.3333).png","","","","","","",""
"","html-slider-response","44","254592","0.0-5.0-0.39","520tj","20210930","1404","V4-20210927","","","","","4162.300000000745","<img src='images/experiment/pair_92_64_out_tensor(0.3333).png' height = '350'><br>How much do you like this image?","304","13","images/experiment/pair_92_64_out_tensor(0.3333).png","","","","","","",""
"","html-slider-response","45","258362","0.0-5.0-0.40","520tj","20210930","1404","V4-20210927","","","","","3759.800000000745","<img src='images/experiment/pair_92_57_out_tensor(0.5000).png' height = '350'><br>How much do you like this image?","298","298","images/experiment/pair_92_57_out_tensor(0.5000).png","","","","","","",""
"","html-slider-response","46","261390","0.0-5.0-0.41","520tj","20210930","1404","V4-20210927","","","","","3017.5","<img src='images/experiment/pair_5_41_out_tensor(0.5000).png' height = '350'><br>How much do you like this image?","411","122","images/experiment/pair_5_41_out_tensor(0.5000).png","","","","","","",""
"","html-slider-response","47","264930","0.0-5.0-0.42","520tj","20210930","1404","V4-20210927","","","","","3530.300000000745","<img src='images/experiment/pair_101_64_out_tensor(0.5000).png' height = '350'><br>How much do you like this image?","291","65","images/experiment/pair_101_64_out_tensor(0.5000).png","","","","","","",""
"","html-slider-response","48","269473","0.0-5.0-0.43","520tj","20210930","1404","V4-20210927","","","","","4533.800000000745","<img src='images/experiment/pair_37_101_out_tensor(0.3333).png' height = '350'><br>How much do you like this image?","435","192","images/experiment/pair_37_101_out_tensor(0.3333).png","","","","","","",""
"","html-slider-response","49","273388","0.0-5.0-0.44","520tj","20210930","1404","V4-20210927","","","","","3904.5","<img src='images/experiment/pair_101_64_out_tensor(0.3333).png' height = '350'><br>How much do you like this image?","409","213","images/experiment/pair_101_64_out_tensor(0.3333).png","","","","","","",""
"","html-slider-response","50","276488","0.0-5.0-0.45","520tj","20210930","1404","V4-20210927","","","","","3089.900000002235","<img src='images/experiment/pair_5_64_out_tensor(0.3333).png' height = '350'><br>How much do you like this image?","500","7","images/experiment/pair_5_64_out_tensor(0.3333).png","","","","","","",""
"","html-slider-response","51","279384","0.0-5.0-0.46","520tj","20210930","1404","V4-20210927","","","","","2891.800000000745","<img src='images/experiment/pair_37_92_out_tensor(0.5000).png' height = '350'><br>How much do you like this image?","403","54","images/experiment/pair_37_92_out_tensor(0.5000).png","","","","","","",""
"","html-slider-response","52","283219","0.0-5.0-0.47","520tj","20210930","1404","V4-20210927","","","","","3828.5","<img src='images/experiment/92_start.png' height = '350'><br>How much do you like this image?","297","254","images/experiment/92_start.png","","","","","","",""
"","html-slider-response","53","287391","0.0-5.0-0.48","520tj","20210930","1404","V4-20210927","","","","","4161.900000002235","<img src='images/experiment/pair_5_64_out_tensor(0.6667).png' height = '350'><br>How much do you like this image?","101","14","images/experiment/pair_5_64_out_tensor(0.6667).png","","","","","","",""
"","html-slider-response","54","291953","0.0-5.0-0.49","520tj","20210930","1404","V4-20210927","","","","","4555.89999999851","<img src='images/experiment/pair_37_64_out_tensor(0.3333).png' height = '350'><br>How much do you like this image?","22","48","images/experiment/pair_37_64_out_tensor(0.3333).png","","","","","","",""
"","html-slider-response","55","296020","0.0-5.0-0.50","520tj","20210930","1404","V4-20210927","","","","","4061","<img src='images/experiment/pair_64_41_out_tensor(0.3333).png' height = '350'><br>How much do you like this image?","112","196","images/experiment/pair_64_41_out_tensor(0.3333).png","","","","","","",""
"","html-slider-response","56","299546","0.0-5.0-0.51","520tj","20210930","1404","V4-20210927","","","","","3518","<img src='images/experiment/5_start.png' height = '350'><br>How much do you like this image?","340","314","images/experiment/5_start.png","","","","","","",""
"","html-slider-response","57","304998","0.0-5.0-0.52","520tj","20210930","1404","V4-20210927","","","","","5446.699999999255","<img src='images/experiment/pair_101_57_out_tensor(0.5000).png' height = '350'><br>How much do you like this image?","343","199","images/experiment/pair_101_57_out_tensor(0.5000).png","","","","","","",""
"","html-slider-response","58","309183","0.0-5.0-0.53","520tj","20210930","1404","V4-20210927","","","","","4172.79999999702","<img src='images/experiment/pair_101_57_out_tensor(0.6667).png' height = '350'><br>How much do you like this image?","282","17","images/experiment/pair_101_57_out_tensor(0.6667).png","","","","","","",""
"","html-slider-response","59","320128","0.0-5.0-0.54","520tj","20210930","1404","V4-20210927","","","","","10935.699999999255","<img src='images/experiment/pair_5_41_out_tensor(0.6667).png' height = '350'><br>How much do you like this image?","331","323","images/experiment/pair_5_41_out_tensor(0.6667).png","","","","","","",""
"","instructions","60","543654","0.0-6.0","520tj","20210930","1404","V4-20210927","","","","","223523.79999999702","","","","","[{""page_index"":0,""viewing_time"":186563.79999999702},{""page_index"":1,""viewing_time"":36955.900000002235}]","","","","","",""
"","call-function","61","543664","0.0-7.0","520tj","20210930","1404","V4-20210927","","","","","","","","","","","","","","","",""
"","timed-html-button-response","62","557443","0.0-8.0-0.0","520tj","20210930","1404","V4-20210927","","","","","13763.29999999702","<div id='feedbackText' class='feedbackAttentionCheck'>You have missed the attention check.<br>Please pay attention to the image!</div><div class='container'><div style='width:60px;'></div><div class='centerContainer'><img class='centerImage' src='images/practice/alpaca0.jpg' width='350'></div><div><img src='images/practice/alpaca1.jpg' width='60'><br>Up Next</div></div>","0","","images/practice/alpaca0.jpg","","","images/practice/alpaca1.jpg","","","",""
"","timed-html-button-response","63","560040","0.0-8.0-0.1","520tj","20210930","1404","V4-20210927","","","","","","<div id='feedbackText' class='feedbackAttentionCheck'>You have missed the attention check.<br>Please pay attention to the image!</div><div class='container'><div style='width:60px;'></div><div class='centerContainer'><img class='centerImage' src='images/practice/alpaca1.jpg' width='350'><svg id='dotElement' class='overlayAttentionCheck' width='20' height='20'><circle cx='10' cy='10' r='10' fill='red'onclick='finishTrialAfterRedDotClick()' /></svg></div><div><img src='images/practice/alpaca2.jpg' width='60'><br>Up Next</div></div>","","","images/practice/alpaca1.jpg","","","images/practice/alpaca2.jpg","passed","2594.5","1000",""
"","timed-html-button-response","64","561898","0.0-8.0-0.2","520tj","20210930","1404","V4-20210927","","","","","1854.5999999977648","<div id='feedbackText' class='feedbackAttentionCheck'>You have missed the attention check.<br>Please pay attention to the image!</div><div class='container'><div style='width:60px;'></div><div class='centerContainer'><img class='centerImage' src='images/practice/alpaca2.jpg' width='350'></div><div><img src='images/practice/alpaca3.jpg' width='60'><br>Up Next</div></div>","0","","images/practice/alpaca2.jpg","","","images/practice/alpaca3.jpg","","","",""
"","timed-html-button-response","65","564715","0.0-8.0-0.3","520tj","20210930","1404","V4-20210927","","","","","2807.300000000745","<div id='feedbackText' class='feedbackAttentionCheck'>You have missed the attention check.<br>Please pay attention to the image!</div><div class='container'><div style='width:60px;'></div><div class='centerContainer'><img class='centerImage' src='images/practice/alpaca3.jpg' width='350'></div><div><img src='images/practice/alpaca4.jpg' width='60'><br>Up Next</div></div>","0","","images/practice/alpaca3.jpg","","","images/practice/alpaca4.jpg","","","",""
"","timed-html-button-response","66","570240","0.0-8.0-0.4","520tj","20210930","1404","V4-20210927","","","","","5514.800000000745","<div id='feedbackText' class='feedbackAttentionCheck'>You have missed the attention check.<br>Please pay attention to the image!</div><div class='container'><div style='width:60px;'></div><div class='centerContainer'><img class='centerImage' src='images/practice/alpaca4.jpg' width='350'></div><div><img src='images/practice/alpaca5.jpg' width='60'><br>Up Next</div></div>","0","","images/practice/alpaca4.jpg","","","images/practice/alpaca5.jpg","","","",""
"","call-function","67","570246","0.0-9.0","520tj","20210930","1404","V4-20210927","","","","","","","","","","","","","","","",""
"","html-button-response","68","580228","0.0-10.0","520tj","20210930","1404","V4-20210927","","","","","9977.300000000745","
        <div class=""introBox"">
        <h1>Viewing: Summary</h1>

        <p>Remember: You will now view these images for 15 minutes. Look at 
        each image as long as you like to. You can proceed to the next image, 
        shown as a thumbnail, by clicking the 'View Next Image' button.</p>

        <p>From time to time a red dot will appear on some of the images, which 
        you must click on with your mouse. These events will be quite rare. As 
        long as you pay attention to the main image, the red dot will be easy 
        to spot. This task only exists to check whether you look at the image 
        or not.</p> 

        <p>The viewing of the images is your main task.</p>

        <p>Click on 'Continue' to start the viewing part.</p>
        </div>","0","","","","","","","","",""
"","call-function","69","580230","0.0-11.0","520tj","20210930","1404","V4-20210927","","","","","","","","","","","","","","","",""
"","timed-html-button-response","70","582540","0.0-12.0-0.0-0.0","520tj","20210930","1404","V4-20210927","","","","","2304.699999999255","<div id='feedbackText' class='feedbackAttentionCheck'>You have missed the attention check.<br>Please pay attention to the image!</div><div class='container'><div style='width:60px;'></div><div class='centerContainer'><img class='centerImage' src='images/experiment/pair_92_57_out_tensor(0.3333).png' width='350'></div><div><img src='images/experiment/pair_5_41_out_tensor(0.6667).png' width='60'><br>Up Next</div></div>","0","","images/experiment/pair_92_57_out_tensor(0.3333).png","","","images/experiment/pair_5_41_out_tensor(0.6667).png","","","",""
"","timed-html-button-response","71","593330","0.0-12.0-0.0-0.1","520tj","20210930","1404","V4-20210927","","","","","10785.800000000745","<div id='feedbackText' class='feedbackAttentionCheck'>You have missed the attention check.<br>Please pay attention to the image!</div><div class='container'><div style='width:60px;'></div><div class='centerContainer'><img class='centerImage' src='images/experiment/pair_5_41_out_tensor(0.6667).png' width='350'></div><div><img src='images/experiment/pair_92_64_out_tensor(0.6667).png' width='60'><br>Up Next</div></div>","0","","images/experiment/pair_5_41_out_tensor(0.6667).png","","","images/experiment/pair_92_64_out_tensor(0.6667).png","","","",""
"","timed-html-button-response","72","594813","0.0-12.0-0.0-0.2","520tj","20210930","1404","V4-20210927","","","","","1476.800000000745","<div id='feedbackText' class='feedbackAttentionCheck'>You have missed the attention check.<br>Please pay attention to the image!</div><div class='container'><div style='width:60px;'></div><div class='centerContainer'><img class='centerImage' src='images/experiment/pair_92_64_out_tensor(0.6667).png' width='350'></div><div><img src='images/experiment/pair_5_92_out_tensor(0.3333).png' width='60'><br>Up Next</div></div>","0","","images/experiment/pair_92_64_out_tensor(0.6667).png","","","images/experiment/pair_5_92_out_tensor(0.3333).png","","","",""
"","timed-html-button-response","73","597687","0.0-12.0-0.0-0.3","520tj","20210930","1404","V4-20210927","","","","","2861.60000000149","<div id='feedbackText' class='feedbackAttentionCheck'>You have missed the attention check.<br>Please pay attention to the image!</div><div class='container'><div style='width:60px;'></div><div class='centerContainer'><img class='centerImage' src='images/experiment/pair_5_92_out_tensor(0.3333).png' width='350'></div><div><img src='images/experiment/pair_37_101_out_tensor(0.5000).png' width='60'><br>Up Next</div></div>","0","","images/experiment/pair_5_92_out_tensor(0.3333).png","","","images/experiment/pair_37_101_out_tensor(0.5000).png","","","",""
"","timed-html-button-response","74","600315","0.0-12.0-0.0-0.4","520tj","20210930","1404","V4-20210927","","","","","2616.39999999851","<div id='feedbackText' class='feedbackAttentionCheck'>You have missed the attention check.<br>Please pay attention to the image!</div><div class='container'><div style='width:60px;'></div><div class='centerContainer'><img class='centerImage' src='images/experiment/pair_37_101_out_tensor(0.5000).png' width='350'></div><div><img src='images/experiment/pair_101_57_out_tensor(0.6667).png' width='60'><br>Up Next</div></div>","0","","images/experiment/pair_37_101_out_tensor(0.5000).png","","","images/experiment/pair_101_57_out_tensor(0.6667).png","","","",""
"","timed-html-button-response","75","602513","0.0-12.0-0.0-0.5","520tj","20210930","1404","V4-20210927","","","","","2190.800000000745","<div id='feedbackText' class='feedbackAttentionCheck'>You have missed the attention check.<br>Please pay attention to the image!</div><div class='container'><div style='width:60px;'></div><div class='centerContainer'><img class='centerImage' src='images/experiment/pair_101_57_out_tensor(0.6667).png' width='350'></div><div><img src='images/experiment/pair_92_64_out_tensor(0.3333).png' width='60'><br>Up Next</div></div>","0","","images/experiment/pair_101_57_out_tensor(0.6667).png","","","images/experiment/pair_92_64_out_tensor(0.3333).png","","","",""
"","timed-html-button-response","76","603800","0.0-12.0-0.0-0.6","520tj","20210930","1404","V4-20210927","","","","","1278.8999999985099","<div id='feedbackText' class='feedbackAttentionCheck'>You have missed the attention check.<br>Please pay attention to the image!</div><div class='container'><div style='width:60px;'></div><div class='centerContainer'><img class='centerImage' src='images/experiment/pair_92_64_out_tensor(0.3333).png' width='350'></div><div><img src='images/experiment/pair_5_41_out_tensor(0.3333).png' width='60'><br>Up Next</div></div>","0","","images/experiment/pair_92_64_out_tensor(0.3333).png","","","images/experiment/pair_5_41_out_tensor(0.3333).png","","","",""
"","timed-html-button-response","77","612014","0.0-12.0-0.0-0.7","520tj","20210930","1404","V4-20210927","","","","","8205.599999997765","<div id='feedbackText' class='feedbackAttentionCheck'>You have missed the attention check.<br>Please pay attention to the image!</div><div class='container'><div style='width:60px;'></div><div class='centerContainer'><img class='centerImage' src='images/experiment/pair_5_41_out_tensor(0.3333).png' width='350'></div><div><img src='images/experiment/pair_5_92_out_tensor(0.6667).png' width='60'><br>Up Next</div></div>","0","","images/experiment/pair_5_41_out_tensor(0.3333).png","","","images/experiment/pair_5_92_out_tensor(0.6667).png","","","",""
"","timed-html-button-response","78","616545","0.0-12.0-0.0-0.8","520tj","20210930","1404","V4-20210927","","","","","4517.5","<div id='feedbackText' class='feedbackAttentionCheck'>You have missed the attention check.<br>Please pay attention to the image!</div><div class='container'><div style='width:60px;'></div><div class='centerContainer'><img class='centerImage' src='images/experiment/pair_5_92_out_tensor(0.6667).png' width='350'></div><div><img src='images/experiment/37_start.png' width='60'><br>Up Next</div></div>","0","","images/experiment/pair_5_92_out_tensor(0.6667).png","","","images/experiment/37_start.png","","","",""
"","timed-html-button-response","79","625920","0.0-12.0-0.0-0.9","520tj","20210930","1404","V4-20210927","","","","","9366.099999997765","<div id='feedbackText' class='feedbackAttentionCheck'>You have missed the attention check.<br>Please pay attention to the image!</div><div class='container'><div style='width:60px;'></div><div class='centerContainer'><img class='centerImage' src='images/experiment/37_start.png' width='350'></div><div><img src='images/experiment/pair_64_57_out_tensor(0.3333).png' width='60'><br>Up Next</div></div>","0","","images/experiment/37_start.png","","","images/experiment/pair_64_57_out_tensor(0.3333).png","","","",""
"","timed-html-button-response","80","630556","0.0-12.0-0.0-0.10","520tj","20210930","1404","V4-20210927","","","","","4622.900000002235","<div id='feedbackText' class='feedbackAttentionCheck'>You have missed the attention check.<br>Please pay attention to the image!</div><div class='container'><div style='width:60px;'></div><div class='centerContainer'><img class='centerImage' src='images/experiment/pair_64_57_out_tensor(0.3333).png' width='350'></div><div><img src='images/experiment/pair_37_101_out_tensor(0.3333).png' width='60'><br>Up Next</div></div>","0","","images/experiment/pair_64_57_out_tensor(0.3333).png","","","images/experiment/pair_37_101_out_tensor(0.3333).png","","","",""
"","timed-html-button-response","81","638095","0.0-12.0-0.0-0.11","520tj","20210930","1404","V4-20210927","","","","","7528.099999997765","<div id='feedbackText' class='feedbackAttentionCheck'>You have missed the attention check.<br>Please pay attention to the image!</div><div class='container'><div style='width:60px;'></div><div class='centerContainer'><img class='centerImage' src='images/experiment/pair_37_101_out_tensor(0.3333).png' width='350'></div><div><img src='images/experiment/pair_92_64_out_tensor(0.5000).png' width='60'><br>Up Next</div></div>","0","","images/experiment/pair_37_101_out_tensor(0.3333).png","","","images/experiment/pair_92_64_out_tensor(0.5000).png","","","",""
"","timed-html-button-response","82","639612","0.0-12.0-0.0-0.12","520tj","20210930","1404","V4-20210927","","","","","1510.699999999255","<div id='feedbackText' class='feedbackAttentionCheck'>You have missed the attention check.<br>Please pay attention to the image!</div><div class='container'><div style='width:60px;'></div><div class='centerContainer'><img class='centerImage' src='images/experiment/pair_92_64_out_tensor(0.5000).png' width='350'></div><div><img src='images/experiment/pair_37_41_out_tensor(0.6667).png' width='60'><br>Up Next</div></div>","0","","images/experiment/pair_92_64_out_tensor(0.5000).png","","","images/experiment/pair_37_41_out_tensor(0.6667).png","","","",""
"","timed-html-button-response","83","641333","0.0-12.0-0.0-0.13","520tj","20210930","1404","V4-20210927","","","","","1711.300000000745","<div id='feedbackText' class='feedbackAttentionCheck'>You have missed the attention check.<br>Please pay attention to the image!</div><div class='container'><div style='width:60px;'></div><div class='centerContainer'><img class='centerImage' src='images/experiment/pair_37_41_out_tensor(0.6667).png' width='350'></div><div><img src='images/experiment/101_start.png' width='60'><br>Up Next</div></div>","0","","images/experiment/pair_37_41_out_tensor(0.6667).png","","","images/experiment/101_start.png","","","",""
"","timed-html-button-response","84","643670","0.0-12.0-0.0-0.14","520tj","20210930","1404","V4-20210927","","","","","2324.5","<div id='feedbackText' class='feedbackAttentionCheck'>You have missed the attention check.<br>Please pay attention to the image!</div><div class='container'><div style='width:60px;'></div><div class='centerContainer'><img class='centerImage' src='images/experiment/101_start.png' width='350'></div><div><img src='images/experiment/pair_5_101_out_tensor(0.3333).png' width='60'><br>Up Next</div></div>","0","","images/experiment/101_start.png","","","images/experiment/pair_5_101_out_tensor(0.3333).png","","","",""
"","timed-html-button-response","85","653402","0.0-12.0-0.0-0.15","520tj","20210930","1404","V4-20210927","","","","","9724.39999999851","<div id='feedbackText' class='feedbackAttentionCheck'>You have missed the attention check.<br>Please pay attention to the image!</div><div class='container'><div style='width:60px;'></div><div class='centerContainer'><img class='centerImage' src='images/experiment/pair_5_101_out_tensor(0.3333).png' width='350'></div><div><img src='images/experiment/pair_5_41_out_tensor(0.5000).png' width='60'><br>Up Next</div></div>","0","","images/experiment/pair_5_101_out_tensor(0.3333).png","","","images/experiment/pair_5_41_out_tensor(0.5000).png","","","",""
"","timed-html-button-response","86","659961","0.0-12.0-0.0-0.16","520tj","20210930","1404","V4-20210927","","","","","6552.199999999255","<div id='feedbackText' class='feedbackAttentionCheck'>You have missed the attention check.<br>Please pay attention to the image!</div><div class='container'><div style='width:60px;'></div><div class='centerContainer'><img class='centerImage' src='images/experiment/pair_5_41_out_tensor(0.5000).png' width='350'></div><div><img src='images/experiment/pair_5_64_out_tensor(0.3333).png' width='60'><br>Up Next</div></div>","0","","images/experiment/pair_5_41_out_tensor(0.5000).png","","","images/experiment/pair_5_64_out_tensor(0.3333).png","","","",""
"","timed-html-button-response","87","661452","0.0-12.0-0.0-0.17","520tj","20210930","1404","V4-20210927","","","","","1484.3999999985099","<div id='feedbackText' class='feedbackAttentionCheck'>You have missed the attention check.<br>Please pay attention to the image!</div><div class='container'><div style='width:60px;'></div><div class='centerContainer'><img class='centerImage' src='images/experiment/pair_5_64_out_tensor(0.3333).png' width='350'></div><div><img src='images/experiment/pair_101_92_out_tensor(0.6667).png' width='60'><br>Up Next</div></div>","0","","images/experiment/pair_5_64_out_tensor(0.3333).png","","","images/experiment/pair_101_92_out_tensor(0.6667).png","","","",""
"","timed-html-button-response","88","663246","0.0-12.0-0.0-0.18","520tj","20210930","1404","V4-20210927","","","","","1788.800000000745","<div id='feedbackText' class='feedbackAttentionCheck'>You have missed the attention check.<br>Please pay attention to the image!</div><div class='container'><div style='width:60px;'></div><div class='centerContainer'><img class='centerImage' src='images/experiment/pair_101_92_out_tensor(0.6667).png' width='350'></div><div><img src='images/experiment/pair_101_64_out_tensor(0.3333).png' width='60'><br>Up Next</div></div>","0","","images/experiment/pair_101_92_out_tensor(0.6667).png","","","images/experiment/pair_101_64_out_tensor(0.3333).png","","","",""
"","timed-html-button-response","89","664878","0.0-12.0-0.0-0.19","520tj","20210930","1404","V4-20210927","","","","","1626.0999999977648","<div id='feedbackText' class='feedbackAttentionCheck'>You have missed the attention check.<br>Please pay attention to the image!</div><div class='container'><div style='width:60px;'></div><div class='centerContainer'><img class='centerImage' src='images/experiment/pair_101_64_out_tensor(0.3333).png' width='350'></div><div><img src='images/experiment/pair_37_64_out_tensor(0.5000).png' width='60'><br>Up Next</div></div>","0","","images/experiment/pair_101_64_out_tensor(0.3333).png","","","images/experiment/pair_37_64_out_tensor(0.5000).png","","","",""
"","timed-html-button-response","90","666341","0.0-12.0-0.0-0.20","520tj","20210930","1404","V4-20210927","","","","","1440.5","<div id='feedbackText' class='feedbackAttentionCheck'>You have missed the attention check.<br>Please pay attention to the image!</div><div class='container'><div style='width:60px;'></div><div class='centerContainer'><img class='centerImage' src='images/experiment/pair_37_64_out_tensor(0.5000).png' width='350'></div><div><img src='images/experiment/pair_64_41_out_tensor(0.3333).png' width='60'><br>Up Next</div></div>","0","","images/experiment/pair_37_64_out_tensor(0.5000).png","","","images/experiment/pair_64_41_out_tensor(0.3333).png","","","",""
"","timed-html-button-response","91","668052","0.0-12.0-0.0-0.21","520tj","20210930","1404","V4-20210927","","","","","1705","<div id='feedbackText' class='feedbackAttentionCheck'>You have missed the attention check.<br>Please pay attention to the image!</div><div class='container'><div style='width:60px;'></div><div class='centerContainer'><img class='centerImage' src='images/experiment/pair_64_41_out_tensor(0.3333).png' width='350'></div><div><img src='images/experiment/pair_5_101_out_tensor(0.5000).png' width='60'><br>Up Next</div></div>","0","","images/experiment/pair_64_41_out_tensor(0.3333).png","","","images/experiment/pair_5_101_out_tensor(0.5000).png","","","",""
"","timed-html-button-response","92","669686","0.0-12.0-0.0-0.22","520tj","20210930","1404","V4-20210927","","","","","1625.300000000745","<div id='feedbackText' class='feedbackAttentionCheck'>You have missed the attention check.<br>Please pay attention to the image!</div><div class='container'><div style='width:60px;'></div><div class='centerContainer'><img class='centerImage' src='images/experiment/pair_5_101_out_tensor(0.5000).png' width='350'></div><div><img src='images/experiment/pair_101_92_out_tensor(0.5000).png' width='60'><br>Up Next</div></div>","0","","images/experiment/pair_5_101_out_tensor(0.5000).png","","","images/experiment/pair_101_92_out_tensor(0.5000).png","","","",""
"","timed-html-button-response","93","671035","0.0-12.0-0.0-0.23","520tj","20210930","1404","V4-20210927","","","","","1340.8999999985099","<div id='feedbackText' class='feedbackAttentionCheck'>You have missed the attention check.<br>Please pay attention to the image!</div><div class='container'><div style='width:60px;'></div><div class='centerContainer'><img class='centerImage' src='images/experiment/pair_101_92_out_tensor(0.5000).png' width='350'></div><div><img src='images/experiment/pair_101_57_out_tensor(0.3333).png' width='60'><br>Up Next</div></div>","0","","images/experiment/pair_101_92_out_tensor(0.5000).png","","","images/experiment/pair_101_57_out_tensor(0.3333).png","","","",""
"","timed-html-button-response","94","672574","0.0-12.0-0.0-0.24","520tj","20210930","1404","V4-20210927","","","","","1531.5","<div id='feedbackText' class='feedbackAttentionCheck'>You have missed the attention check.<br>Please pay attention to the image!</div><div class='container'><div style='width:60px;'></div><div class='centerContainer'><img class='centerImage' src='images/experiment/pair_101_57_out_tensor(0.3333).png' width='350'></div><div><img src='images/experiment/pair_37_101_out_tensor(0.6667).png' width='60'><br>Up Next</div></div>","0","","images/experiment/pair_101_57_out_tensor(0.3333).png","","","images/experiment/pair_37_101_out_tensor(0.6667).png","","","",""
"","timed-html-button-response","95","674111","0.0-12.0-0.0-0.25","520tj","20210930","1404","V4-20210927","","","","","1527.800000000745","<div id='feedbackText' class='feedbackAttentionCheck'>You have missed the attention check.<br>Please pay attention to the image!</div><div class='container'><div style='width:60px;'></div><div class='centerContainer'><img class='centerImage' src='images/experiment/pair_37_101_out_tensor(0.6667).png' width='350'></div><div><img src='images/experiment/pair_5_64_out_tensor(0.5000).png' width='60'><br>Up Next</div></div>","0","","images/experiment/pair_37_101_out_tensor(0.6667).png","","","images/experiment/pair_5_64_out_tensor(0.5000).png","","","",""
"","timed-html-button-response","96","675785","0.0-12.0-0.0-0.26","520tj","20210930","1404","V4-20210927","","","","","1665.800000000745","<div id='feedbackText' class='feedbackAttentionCheck'>You have missed the attention check.<br>Please pay attention to the image!</div><div class='container'><div style='width:60px;'></div><div class='centerContainer'><img class='centerImage' src='images/experiment/pair_5_64_out_tensor(0.5000).png' width='350'></div><div><img src='images/experiment/pair_64_41_out_tensor(0.6667).png' width='60'><br>Up Next</div></div>","0","","images/experiment/pair_5_64_out_tensor(0.5000).png","","","images/experiment/pair_64_41_out_tensor(0.6667).png","","","",""
"","timed-html-button-response","97","677043","0.0-12.0-0.0-0.27","520tj","20210930","1404","V4-20210927","","","","","1248.5","<div id='feedbackText' class='feedbackAttentionCheck'>You have missed the attention check.<br>Please pay attention to the image!</div><div class='container'><div style='width:60px;'></div><div class='centerContainer'><img class='centerImage' src='images/experiment/pair_64_41_out_tensor(0.6667).png' width='350'></div><div><img src='images/experiment/pair_101_64_out_tensor(0.5000).png' width='60'><br>Up Next</div></div>","0","","images/experiment/pair_64_41_out_tensor(0.6667).png","","","images/experiment/pair_101_64_out_tensor(0.5000).png","","","",""
"","timed-html-button-response","98","677951","0.0-12.0-0.0-0.28","520tj","20210930","1404","V4-20210927","","","","","902.8999999985099","<div id='feedbackText' class='feedbackAttentionCheck'>You have missed the attention check.<br>Please pay attention to the image!</div><div class='container'><div style='width:60px;'></div><div class='centerContainer'><img class='centerImage' src='images/experiment/pair_101_64_out_tensor(0.5000).png' width='350'></div><div><img src='images/experiment/pair_37_41_out_tensor(0.5000).png' width='60'><br>Up Next</div></div>","0","","images/experiment/pair_101_64_out_tensor(0.5000).png","","","images/experiment/pair_37_41_out_tensor(0.5000).png","","","",""
"","timed-html-button-response","99","679452","0.0-12.0-0.0-0.29","520tj","20210930","1404","V4-20210927","","","","","1492","<div id='feedbackText' class='feedbackAttentionCheck'>You have missed the attention check.<br>Please pay attention to the image!</div><div class='container'><div style='width:60px;'></div><div class='centerContainer'><img class='centerImage' src='images/experiment/pair_37_41_out_tensor(0.5000).png' width='350'></div><div><img src='images/experiment/pair_37_92_out_tensor(0.6667).png' width='60'><br>Up Next</div></div>","0","","images/experiment/pair_37_41_out_tensor(0.5000).png","","","images/experiment/pair_37_92_out_tensor(0.6667).png","","","",""
"","timed-html-button-response","100","681631","0.0-12.0-0.0-0.30","520tj","20210930","1404","V4-20210927","","","","","2171","<div id='feedbackText' class='feedbackAttentionCheck'>You have missed the attention check.<br>Please pay attention to the image!</div><div class='container'><div style='width:60px;'></div><div class='centerContainer'><img class='centerImage' src='images/experiment/pair_37_92_out_tensor(0.6667).png' width='350'></div><div><img src='images/experiment/pair_37_57_out_tensor(0.5000).png' width='60'><br>Up Next</div></div>","0","","images/experiment/pair_37_92_out_tensor(0.6667).png","","","images/experiment/pair_37_57_out_tensor(0.5000).png","","","",""
"","timed-html-button-response","101","686158","0.0-12.0-0.0-0.31","520tj","20210930","1404","V4-20210927","","","","","4516.39999999851","<div id='feedbackText' class='feedbackAttentionCheck'>You have missed the attention check.<br>Please pay attention to the image!</div><div class='container'><div style='width:60px;'></div><div class='centerContainer'><img class='centerImage' src='images/experiment/pair_37_57_out_tensor(0.5000).png' width='350'></div><div><img src='images/experiment/pair_101_92_out_tensor(0.3333).png' width='60'><br>Up Next</div></div>","0","","images/experiment/pair_37_57_out_tensor(0.5000).png","","","images/experiment/pair_101_92_out_tensor(0.3333).png","","","",""
"","timed-html-button-response","102","691384","0.0-12.0-0.0-0.32","520tj","20210930","1404","V4-20210927","","","","","5216.300000000745","<div id='feedbackText' class='feedbackAttentionCheck'>You have missed the attention check.<br>Please pay attention to the image!</div><div class='container'><div style='width:60px;'></div><div class='centerContainer'><img class='centerImage' src='images/experiment/pair_101_92_out_tensor(0.3333).png' width='350'></div><div><img src='images/experiment/64_start.png' width='60'><br>Up Next</div></div>","0","","images/experiment/pair_101_92_out_tensor(0.3333).png","","","images/experiment/64_start.png","","","",""
"","timed-html-button-response","103","693222","0.0-12.0-0.0-0.33","520tj","20210930","1404","V4-20210927","","","","","1833","<div id='feedbackText' class='feedbackAttentionCheck'>You have missed the attention check.<br>Please pay attention to the image!</div><div class='container'><div style='width:60px;'></div><div class='centerContainer'><img class='centerImage' src='images/experiment/64_start.png' width='350'></div><div><img src='images/experiment/pair_101_64_out_tensor(0.6667).png' width='60'><br>Up Next</div></div>","0","","images/experiment/64_start.png","","","images/experiment/pair_101_64_out_tensor(0.6667).png","","","",""
"","timed-html-button-response","104","694795","0.0-12.0-0.0-0.34","520tj","20210930","1404","V4-20210927","","","","","1564.1000000014901","<div id='feedbackText' class='feedbackAttentionCheck'>You have missed the attention check.<br>Please pay attention to the image!</div><div class='container'><div style='width:60px;'></div><div class='centerContainer'><img class='centerImage' src='images/experiment/pair_101_64_out_tensor(0.6667).png' width='350'></div><div><img src='images/experiment/pair_37_57_out_tensor(0.3333).png' width='60'><br>Up Next</div></div>","0","","images/experiment/pair_101_64_out_tensor(0.6667).png","","","images/experiment/pair_37_57_out_tensor(0.3333).png","","","",""
"","timed-html-button-response","105","700938","0.0-12.0-0.0-0.35","520tj","20210930","1404","V4-20210927","","","","","6134.39999999851","<div id='feedbackText' class='feedbackAttentionCheck'>You have missed the attention check.<br>Please pay attention to the image!</div><div class='container'><div style='width:60px;'></div><div class='centerContainer'><img class='centerImage' src='images/experiment/pair_37_57_out_tensor(0.3333).png' width='350'></div><div><img src='images/experiment/pair_37_57_out_tensor(0.6667).png' width='60'><br>Up Next</div></div>","0","","images/experiment/pair_37_57_out_tensor(0.3333).png","","","images/experiment/pair_37_57_out_tensor(0.6667).png","","","",""
"","timed-html-button-response","106","702489","0.0-12.0-0.0-0.36","520tj","20210930","1404","V4-20210927","","","","","1538.1000000014901","<div id='feedbackText' class='feedbackAttentionCheck'>You have missed the attention check.<br>Please pay attention to the image!</div><div class='container'><div style='width:60px;'></div><div class='centerContainer'><img class='centerImage' src='images/experiment/pair_37_57_out_tensor(0.6667).png' width='350'></div><div><img src='images/experiment/pair_5_92_out_tensor(0.5000).png' width='60'><br>Up Next</div></div>","0","","images/experiment/pair_37_57_out_tensor(0.6667).png","","","images/experiment/pair_5_92_out_tensor(0.5000).png","","","",""
"","timed-html-button-response","107","704544","0.0-12.0-0.0-0.37","520tj","20210930","1404","V4-20210927","","","","","2046.6000000014901","<div id='feedbackText' class='feedbackAttentionCheck'>You have missed the attention check.<br>Please pay attention to the image!</div><div class='container'><div style='width:60px;'></div><div class='centerContainer'><img class='centerImage' src='images/experiment/pair_5_92_out_tensor(0.5000).png' width='350'></div><div><img src='images/experiment/pair_37_64_out_tensor(0.3333).png' width='60'><br>Up Next</div></div>","0","","images/experiment/pair_5_92_out_tensor(0.5000).png","","","images/experiment/pair_37_64_out_tensor(0.3333).png","","","",""
"","timed-html-button-response","108","710865","0.0-12.0-0.0-0.38","520tj","20210930","1404","V4-20210927","","","","","6310.400000002235","<div id='feedbackText' class='feedbackAttentionCheck'>You have missed the attention check.<br>Please pay attention to the image!</div><div class='container'><div style='width:60px;'></div><div class='centerContainer'><img class='centerImage' src='images/experiment/pair_37_64_out_tensor(0.3333).png' width='350'></div><div><img src='images/experiment/pair_64_57_out_tensor(0.5000).png' width='60'><br>Up Next</div></div>","0","","images/experiment/pair_37_64_out_tensor(0.3333).png","","","images/experiment/pair_64_57_out_tensor(0.5000).png","","","",""
"","timed-html-button-response","109","712349","0.0-12.0-0.0-0.39","520tj","20210930","1404","V4-20210927","","","","","1470.3999999985099","<div id='feedbackText' class='feedbackAttentionCheck'>You have missed the attention check.<br>Please pay attention to the image!</div><div class='container'><div style='width:60px;'></div><div class='centerContainer'><img class='centerImage' src='images/experiment/pair_64_57_out_tensor(0.5000).png' width='350'></div><div><img src='images/experiment/pair_64_41_out_tensor(0.5000).png' width='60'><br>Up Next</div></div>","0","","images/experiment/pair_64_57_out_tensor(0.5000).png","","","images/experiment/pair_64_41_out_tensor(0.5000).png","","","",""
"","timed-html-button-response","110","713885","0.0-12.0-0.0-0.40","520tj","20210930","1404","V4-20210927","","","","","1524.9000000022352","<div id='feedbackText' class='feedbackAttentionCheck'>You have missed the attention check.<br>Please pay attention to the image!</div><div class='container'><div style='width:60px;'></div><div class='centerContainer'><img class='centerImage' src='images/experiment/pair_64_41_out_tensor(0.5000).png' width='350'></div><div><img src='images/experiment/pair_5_64_out_tensor(0.6667).png' width='60'><br>Up Next</div></div>","0","","images/experiment/pair_64_41_out_tensor(0.5000).png","","","images/experiment/pair_5_64_out_tensor(0.6667).png","","","",""
"","timed-html-button-response","111","715758","0.0-12.0-0.0-0.41","520tj","20210930","1404","V4-20210927","","","","","1862.199999999255","<div id='feedbackText' class='feedbackAttentionCheck'>You have missed the attention check.<br>Please pay attention to the image!</div><div class='container'><div style='width:60px;'></div><div class='centerContainer'><img class='centerImage' src='images/experiment/pair_5_64_out_tensor(0.6667).png' width='350'></div><div><img src='images/experiment/pair_37_92_out_tensor(0.5000).png' width='60'><br>Up Next</div></div>","0","","images/experiment/pair_5_64_out_tensor(0.6667).png","","","images/experiment/pair_37_92_out_tensor(0.5000).png","","","",""
"","timed-html-button-response","112","720887","0.0-12.0-0.0-0.42","520tj","20210930","1404","V4-20210927","","","","","5120.400000002235","<div id='feedbackText' class='feedbackAttentionCheck'>You have missed the attention check.<br>Please pay attention to the image!</div><div class='container'><div style='width:60px;'></div><div class='centerContainer'><img class='centerImage' src='images/experiment/pair_37_92_out_tensor(0.5000).png' width='350'></div><div><img src='images/experiment/pair_101_57_out_tensor(0.5000).png' width='60'><br>Up Next</div></div>","0","","images/experiment/pair_37_92_out_tensor(0.5000).png","","","images/experiment/pair_101_57_out_tensor(0.5000).png","","","",""
"","timed-html-button-response","113","725566","0.0-12.0-0.0-0.43","520tj","20210930","1404","V4-20210927","","","","","4674.20000000298","<div id='feedbackText' class='feedbackAttentionCheck'>You have missed the attention check.<br>Please pay attention to the image!</div><div class='container'><div style='width:60px;'></div><div class='centerContainer'><img class='centerImage' src='images/experiment/pair_101_57_out_tensor(0.5000).png' width='350'></div><div><img src='images/experiment/pair_92_57_out_tensor(0.5000).png' width='60'><br>Up Next</div></div>","0","","images/experiment/pair_101_57_out_tensor(0.5000).png","","","images/experiment/pair_92_57_out_tensor(0.5000).png","","","",""
"","timed-html-button-response","114","727561","0.0-12.0-0.0-0.44","520tj","20210930","1404","V4-20210927","","","","","1988.5","<div id='feedbackText' class='feedbackAttentionCheck'>You have missed the attention check.<br>Please pay attention to the image!</div><div class='container'><div style='width:60px;'></div><div class='centerContainer'><img class='centerImage' src='images/experiment/pair_92_57_out_tensor(0.5000).png' width='350'><svg id='dotElement' class='overlayAttentionCheck' width='20' height='20'><circle cx='10' cy='10' r='10' fill='red'onclick='finishTrialAfterRedDotClick()' /></svg></div><div><img src='images/experiment/pair_5_101_out_tensor(0.6667).png' width='60'><br>Up Next</div></div>","0","","images/experiment/pair_92_57_out_tensor(0.5000).png","","","images/experiment/pair_5_101_out_tensor(0.6667).png","not seen","","4500",""
"","timed-html-button-response","115","729989","0.0-12.0-0.0-0.45","520tj","20210930","1404","V4-20210927","","","","","2419.2999999970198","<div id='feedbackText' class='feedbackAttentionCheck'>You have missed the attention check.<br>Please pay attention to the image!</div><div class='container'><div style='width:60px;'></div><div class='centerContainer'><img class='centerImage' src='images/experiment/pair_5_101_out_tensor(0.6667).png' width='350'></div><div><img src='images/experiment/57_start.png' width='60'><br>Up Next</div></div>","0","","images/experiment/pair_5_101_out_tensor(0.6667).png","","","images/experiment/57_start.png","","","",""
"","timed-html-button-response","116","731722","0.0-12.0-0.0-0.46","520tj","20210930","1404","V4-20210927","","","","","1723.199999999255","<div id='feedbackText' class='feedbackAttentionCheck'>You have missed the attention check.<br>Please pay attention to the image!</div><div class='container'><div style='width:60px;'></div><div class='centerContainer'><img class='centerImage' src='images/experiment/57_start.png' width='350'></div><div><img src='images/experiment/pair_92_57_out_tensor(0.6667).png' width='60'><br>Up Next</div></div>","0","","images/experiment/57_start.png","","","images/experiment/pair_92_57_out_tensor(0.6667).png","","","",""
"","timed-html-button-response","117","733431","0.0-12.0-0.0-0.47","520tj","20210930","1404","V4-20210927","","","","","1698.199999999255","<div id='feedbackText' class='feedbackAttentionCheck'>You have missed the attention check.<br>Please pay attention to the image!</div><div class='container'><div style='width:60px;'></div><div class='centerContainer'><img class='centerImage' src='images/experiment/pair_92_57_out_tensor(0.6667).png' width='350'><svg id='dotElement' class='overlayAttentionCheck' width='20' height='20'><circle cx='10' cy='10' r='10' fill='red'onclick='finishTrialAfterRedDotClick()' /></svg></div><div><img src='images/experiment/pair_37_64_out_tensor(0.6667).png' width='60'><br>Up Next</div></div>","0","","images/experiment/pair_92_57_out_tensor(0.6667).png","","","images/experiment/pair_37_64_out_tensor(0.6667).png","not seen","","2500",""
"","timed-html-button-response","118","734834","0.0-12.0-0.0-0.48","520tj","20210930","1404","V4-20210927","","","","","1398.7999999970198","<div id='feedbackText' class='feedbackAttentionCheck'>You have missed the attention check.<br>Please pay attention to the image!</div><div class='container'><div style='width:60px;'></div><div class='centerContainer'><img class='centerImage' src='images/experiment/pair_37_64_out_tensor(0.6667).png' width='350'></div><div><img src='images/experiment/92_start.png' width='60'><br>Up Next</div></div>","0","","images/experiment/pair_37_64_out_tensor(0.6667).png","","","images/experiment/92_start.png","","","",""
"","timed-html-button-response","119","736330","0.0-12.0-0.0-0.49","520tj","20210930","1404","V4-20210927","","","","","1490.7000000029802","<div id='feedbackText' class='feedbackAttentionCheck'>You have missed the attention check.<br>Please pay attention to the image!</div><div class='container'><div style='width:60px;'></div><div class='centerContainer'><img class='centerImage' src='images/experiment/92_start.png' width='350'></div><div><img src='images/experiment/pair_64_57_out_tensor(0.6667).png' width='60'><br>Up Next</div></div>","0","","images/experiment/92_start.png","","","images/experiment/pair_64_57_out_tensor(0.6667).png","","","",""
"","timed-html-button-response","120","738040","0.0-12.0-0.0-0.50","520tj","20210930","1404","V4-20210927","","","","","1704.300000000745","<div id='feedbackText' class='feedbackAttentionCheck'>You have missed the attention check.<br>Please pay attention to the image!</div><div class='container'><div style='width:60px;'></div><div class='centerContainer'><img class='centerImage' src='images/experiment/pair_64_57_out_tensor(0.6667).png' width='350'></div><div><img src='images/experiment/5_start.png' width='60'><br>Up Next</div></div>","0","","images/experiment/pair_64_57_out_tensor(0.6667).png","","","images/experiment/5_start.png","","","",""
"","timed-html-button-response","121","745479","0.0-12.0-0.0-0.51","520tj","20210930","1404","V4-20210927","","","","","7432.599999997765","<div id='feedbackText' class='feedbackAttentionCheck'>You have missed the attention check.<br>Please pay attention to the image!</div><div class='container'><div style='width:60px;'></div><div class='centerContainer'><img class='centerImage' src='images/experiment/5_start.png' width='350'></div><div><img src='images/experiment/41_start.png' width='60'><br>Up Next</div></div>","0","","images/experiment/5_start.png","","","images/experiment/41_start.png","","","",""
"","timed-html-button-response","122","749037","0.0-12.0-0.0-0.52","520tj","20210930","1404","V4-20210927","","","","","3547.2999999970198","<div id='feedbackText' class='feedbackAttentionCheck'>You have missed the attention check.<br>Please pay attention to the image!</div><div class='container'><div style='width:60px;'></div><div class='centerContainer'><img class='centerImage' src='images/experiment/41_start.png' width='350'></div><div><img src='images/experiment/pair_37_41_out_tensor(0.3333).png' width='60'><br>Up Next</div></div>","0","","images/experiment/41_start.png","","","images/experiment/pair_37_41_out_tensor(0.3333).png","","","",""
"","timed-html-button-response","123","767530","0.0-12.0-0.0-0.53","520tj","20210930","1404","V4-20210927","","","","","18482.79999999702","<div id='feedbackText' class='feedbackAttentionCheck'>You have missed the attention check.<br>Please pay attention to the image!</div><div class='container'><div style='width:60px;'></div><div class='centerContainer'><img class='centerImage' src='images/experiment/pair_37_41_out_tensor(0.3333).png' width='350'></div><div><img src='images/experiment/pair_37_92_out_tensor(0.3333).png' width='60'><br>Up Next</div></div>","0","","images/experiment/pair_37_41_out_tensor(0.3333).png","","","images/experiment/pair_37_92_out_tensor(0.3333).png","","","",""
"","timed-html-button-response","124","768798","0.0-12.0-0.0-0.54","520tj","20210930","1404","V4-20210927","","","","","1257.1000000014901","<div id='feedbackText' class='feedbackAttentionCheck'>You have missed the attention check.<br>Please pay attention to the image!</div><div class='container'><div style='width:60px;'></div><div class='centerContainer'><img class='centerImage' src='images/experiment/pair_37_92_out_tensor(0.3333).png' width='350'></div><div><img src='images/experiment/pair_101_57_out_tensor(0.5000).png' width='60'><br>Up Next</div></div>","0","","images/experiment/pair_37_92_out_tensor(0.3333).png","","","images/experiment/pair_101_57_out_tensor(0.5000).png","","","",""
"","timed-html-button-response","125","771378","0.0-12.0-0.0-0.55","520tj","20210930","1404","V4-20210927","","","","","2572.7999999970198","<div id='feedbackText' class='feedbackAttentionCheck'>You have missed the attention check.<br>Please pay attention to the image!</div><div class='container'><div style='width:60px;'></div><div class='centerContainer'><img class='centerImage' src='images/experiment/pair_101_57_out_tensor(0.5000).png' width='350'></div><div><img src='images/experiment/pair_37_64_out_tensor(0.3333).png' width='60'><br>Up Next</div></div>","0","","images/experiment/pair_101_57_out_tensor(0.5000).png","","","images/experiment/pair_37_64_out_tensor(0.3333).png","","","",""
"","timed-html-button-response","126","773290","0.0-12.0-0.0-0.56","520tj","20210930","1404","V4-20210927","","","","","1903.300000000745","<div id='feedbackText' class='feedbackAttentionCheck'>You have missed the attention check.<br>Please pay attention to the image!</div><div class='container'><div style='width:60px;'></div><div class='centerContainer'><img class='centerImage' src='images/experiment/pair_37_64_out_tensor(0.3333).png' width='350'></div><div><img src='images/experiment/pair_101_92_out_tensor(0.5000).png' width='60'><br>Up Next</div></div>","0","","images/experiment/pair_37_64_out_tensor(0.3333).png","","","images/experiment/pair_101_92_out_tensor(0.5000).png","","","",""
"","timed-html-button-response","127","778911","0.0-12.0-0.0-0.57","520tj","20210930","1404","V4-20210927","","","","","5616.20000000298","<div id='feedbackText' class='feedbackAttentionCheck'>You have missed the attention check.<br>Please pay attention to the image!</div><div class='container'><div style='width:60px;'></div><div class='centerContainer'><img class='centerImage' src='images/experiment/pair_101_92_out_tensor(0.5000).png' width='350'></div><div><img src='images/experiment/pair_37_92_out_tensor(0.6667).png' width='60'><br>Up Next</div></div>","0","","images/experiment/pair_101_92_out_tensor(0.5000).png","","","images/experiment/pair_37_92_out_tensor(0.6667).png","","","",""
"","timed-html-button-response","128","780742","0.0-12.0-0.0-0.58","520tj","20210930","1404","V4-20210927","","","","","1826.800000000745","<div id='feedbackText' class='feedbackAttentionCheck'>You have missed the attention check.<br>Please pay attention to the image!</div><div class='container'><div style='width:60px;'></div><div class='centerContainer'><img class='centerImage' src='images/experiment/pair_37_92_out_tensor(0.6667).png' width='350'></div><div><img src='images/experiment/pair_92_57_out_tensor(0.5000).png' width='60'><br>Up Next</div></div>","0","","images/experiment/pair_37_92_out_tensor(0.6667).png","","","images/experiment/pair_92_57_out_tensor(0.5000).png","","","",""
"","timed-html-button-response","129","781990","0.0-12.0-0.0-0.59","520tj","20210930","1404","V4-20210927","","","","","1242.8999999985099","<div id='feedbackText' class='feedbackAttentionCheck'>You have missed the attention check.<br>Please pay attention to the image!</div><div class='container'><div style='width:60px;'></div><div class='centerContainer'><img class='centerImage' src='images/experiment/pair_92_57_out_tensor(0.5000).png' width='350'></div><div><img src='images/experiment/pair_5_41_out_tensor(0.3333).png' width='60'><br>Up Next</div></div>","0","","images/experiment/pair_92_57_out_tensor(0.5000).png","","","images/experiment/pair_5_41_out_tensor(0.3333).png","","","",""
"","timed-html-button-response","130","808335","0.0-12.0-0.0-0.60","520tj","20210930","1404","V4-20210927","","","","","26336","<div id='feedbackText' class='feedbackAttentionCheck'>You have missed the attention check.<br>Please pay attention to the image!</div><div class='container'><div style='width:60px;'></div><div class='centerContainer'><img class='centerImage' src='images/experiment/pair_5_41_out_tensor(0.3333).png' width='350'></div><div><img src='images/experiment/pair_37_101_out_tensor(0.6667).png' width='60'><br>Up Next</div></div>","0","","images/experiment/pair_5_41_out_tensor(0.3333).png","","","images/experiment/pair_37_101_out_tensor(0.6667).png","","","",""
"","timed-html-button-response","131","811110","0.0-12.0-0.0-0.61","520tj","20210930","1404","V4-20210927","","","","","2759.60000000149","<div id='feedbackText' class='feedbackAttentionCheck'>You have missed the attention check.<br>Please pay attention to the image!</div><div class='container'><div style='width:60px;'></div><div class='centerContainer'><img class='centerImage' src='images/experiment/pair_37_101_out_tensor(0.6667).png' width='350'></div><div><img src='images/experiment/pair_92_64_out_tensor(0.3333).png' width='60'><br>Up Next</div></div>","0","","images/experiment/pair_37_101_out_tensor(0.6667).png","","","images/experiment/pair_92_64_out_tensor(0.3333).png","","","",""
"","timed-html-button-response","132","812312","0.0-12.0-0.0-0.62","520tj","20210930","1404","V4-20210927","","","","","1193.8999999985099","<div id='feedbackText' class='feedbackAttentionCheck'>You have missed the attention check.<br>Please pay attention to the image!</div><div class='container'><div style='width:60px;'></div><div class='centerContainer'><img class='centerImage' src='images/experiment/pair_92_64_out_tensor(0.3333).png' width='350'></div><div><img src='images/experiment/pair_101_92_out_tensor(0.6667).png' width='60'><br>Up Next</div></div>","0","","images/experiment/pair_92_64_out_tensor(0.3333).png","","","images/experiment/pair_101_92_out_tensor(0.6667).png","","","",""
"","timed-html-button-response","133","813308","0.0-12.0-0.0-0.63","520tj","20210930","1404","V4-20210927","","","","","986.8999999985099","<div id='feedbackText' class='feedbackAttentionCheck'>You have missed the attention check.<br>Please pay attention to the image!</div><div class='container'><div style='width:60px;'></div><div class='centerContainer'><img class='centerImage' src='images/experiment/pair_101_92_out_tensor(0.6667).png' width='350'></div><div><img src='images/experiment/pair_5_64_out_tensor(0.6667).png' width='60'><br>Up Next</div></div>","0","","images/experiment/pair_101_92_out_tensor(0.6667).png","","","images/experiment/pair_5_64_out_tensor(0.6667).png","","","",""
"","timed-html-button-response","134","814408","0.0-12.0-0.0-0.64","520tj","20210930","1404","V4-20210927","","","","","1090.5999999977648","<div id='feedbackText' class='feedbackAttentionCheck'>You have missed the attention check.<br>Please pay attention to the image!</div><div class='container'><div style='width:60px;'></div><div class='centerContainer'><img class='centerImage' src='images/experiment/pair_5_64_out_tensor(0.6667).png' width='350'></div><div><img src='images/experiment/pair_101_57_out_tensor(0.6667).png' width='60'><br>Up Next</div></div>","0","","images/experiment/pair_5_64_out_tensor(0.6667).png","","","images/experiment/pair_101_57_out_tensor(0.6667).png","","","",""
"","timed-html-button-response","135","817293","0.0-12.0-0.0-0.65","520tj","20210930","1404","V4-20210927","","","","","2874.099999997765","<div id='feedbackText' class='feedbackAttentionCheck'>You have missed the attention check.<br>Please pay attention to the image!</div><div class='container'><div style='width:60px;'></div><div class='centerContainer'><img class='centerImage' src='images/experiment/pair_101_57_out_tensor(0.6667).png' width='350'></div><div><img src='images/experiment/pair_37_57_out_tensor(0.6667).png' width='60'><br>Up Next</div></div>","0","","images/experiment/pair_101_57_out_tensor(0.6667).png","","","images/experiment/pair_37_57_out_tensor(0.6667).png","","","",""
"","timed-html-button-response","136","818371","0.0-12.0-0.0-0.66","520tj","20210930","1404","V4-20210927","","","","","1066.800000000745","<div id='feedbackText' class='feedbackAttentionCheck'>You have missed the attention check.<br>Please pay attention to the image!</div><div class='container'><div style='width:60px;'></div><div class='centerContainer'><img class='centerImage' src='images/experiment/pair_37_57_out_tensor(0.6667).png' width='350'></div><div><img src='images/experiment/pair_101_64_out_tensor(0.5000).png' width='60'><br>Up Next</div></div>","0","","images/experiment/pair_37_57_out_tensor(0.6667).png","","","images/experiment/pair_101_64_out_tensor(0.5000).png","","","",""
"","timed-html-button-response","137","819379","0.0-12.0-0.0-0.67","520tj","20210930","1404","V4-20210927","","","","","998.6999999992549","<div id='feedbackText' class='feedbackAttentionCheck'>You have missed the attention check.<br>Please pay attention to the image!</div><div class='container'><div style='width:60px;'></div><div class='centerContainer'><img class='centerImage' src='images/experiment/pair_101_64_out_tensor(0.5000).png' width='350'></div><div><img src='images/experiment/64_start.png' width='60'><br>Up Next</div></div>","0","","images/experiment/pair_101_64_out_tensor(0.5000).png","","","images/experiment/64_start.png","","","",""
"","timed-html-button-response","138","820370","0.0-12.0-0.0-0.68","520tj","20210930","1404","V4-20210927","","","","","980.5","<div id='feedbackText' class='feedbackAttentionCheck'>You have missed the attention check.<br>Please pay attention to the image!</div><div class='container'><div style='width:60px;'></div><div class='centerContainer'><img class='centerImage' src='images/experiment/64_start.png' width='350'></div><div><img src='images/experiment/pair_37_57_out_tensor(0.5000).png' width='60'><br>Up Next</div></div>","0","","images/experiment/64_start.png","","","images/experiment/pair_37_57_out_tensor(0.5000).png","","","",""
"","timed-html-button-response","139","821663","0.0-12.0-0.0-0.69","520tj","20210930","1404","V4-20210927","","","","","1283.1000000014901","<div id='feedbackText' class='feedbackAttentionCheck'>You have missed the attention check.<br>Please pay attention to the image!</div><div class='container'><div style='width:60px;'></div><div class='centerContainer'><img class='centerImage' src='images/experiment/pair_37_57_out_tensor(0.5000).png' width='350'></div><div><img src='images/experiment/pair_101_92_out_tensor(0.3333).png' width='60'><br>Up Next</div></div>","0","","images/experiment/pair_37_57_out_tensor(0.5000).png","","","images/experiment/pair_101_92_out_tensor(0.3333).png","","","",""
"","timed-html-button-response","140","822719","0.0-12.0-0.0-0.70","520tj","20210930","1404","V4-20210927","","","","","1044.9000000022352","<div id='feedbackText' class='feedbackAttentionCheck'>You have missed the attention check.<br>Please pay attention to the image!</div><div class='container'><div style='width:60px;'></div><div class='centerContainer'><img class='centerImage' src='images/experiment/pair_101_92_out_tensor(0.3333).png' width='350'></div><div><img src='images/experiment/pair_5_92_out_tensor(0.6667).png' width='60'><br>Up Next</div></div>","0","","images/experiment/pair_101_92_out_tensor(0.3333).png","","","images/experiment/pair_5_92_out_tensor(0.6667).png","","","",""
"","timed-html-button-response","141","823757","0.0-12.0-0.0-0.71","520tj","20210930","1404","V4-20210927","","","","","1029.300000000745","<div id='feedbackText' class='feedbackAttentionCheck'>You have missed the attention check.<br>Please pay attention to the image!</div><div class='container'><div style='width:60px;'></div><div class='centerContainer'><img class='centerImage' src='images/experiment/pair_5_92_out_tensor(0.6667).png' width='350'></div><div><img src='images/experiment/pair_37_101_out_tensor(0.5000).png' width='60'><br>Up Next</div></div>","0","","images/experiment/pair_5_92_out_tensor(0.6667).png","","","images/experiment/pair_37_101_out_tensor(0.5000).png","","","",""
"","timed-html-button-response","142","836992","0.0-12.0-0.0-0.72","520tj","20210930","1404","V4-20210927","","","","","13222.199999999255","<div id='feedbackText' class='feedbackAttentionCheck'>You have missed the attention check.<br>Please pay attention to the image!</div><div class='container'><div style='width:60px;'></div><div class='centerContainer'><img class='centerImage' src='images/experiment/pair_37_101_out_tensor(0.5000).png' width='350'></div><div><img src='images/experiment/pair_5_64_out_tensor(0.3333).png' width='60'><br>Up Next</div></div>","0","","images/experiment/pair_37_101_out_tensor(0.5000).png","","","images/experiment/pair_5_64_out_tensor(0.3333).png","","","",""
"","timed-html-button-response","143","843765","0.0-12.0-0.0-0.73","520tj","20210930","1404","V4-20210927","","","","","6760.300000000745","<div id='feedbackText' class='feedbackAttentionCheck'>You have missed the attention check.<br>Please pay attention to the image!</div><div class='container'><div style='width:60px;'></div><div class='centerContainer'><img class='centerImage' src='images/experiment/pair_5_64_out_tensor(0.3333).png' width='350'></div><div><img src='images/experiment/pair_37_57_out_tensor(0.3333).png' width='60'><br>Up Next</div></div>","0","","images/experiment/pair_5_64_out_tensor(0.3333).png","","","images/experiment/pair_37_57_out_tensor(0.3333).png","","","",""
"","timed-html-button-response","144","849225","0.0-12.0-0.0-0.74","520tj","20210930","1404","V4-20210927","","","","","5449.300000000745","<div id='feedbackText' class='feedbackAttentionCheck'>You have missed the attention check.<br>Please pay attention to the image!</div><div class='container'><div style='width:60px;'></div><div class='centerContainer'><img class='centerImage' src='images/experiment/pair_37_57_out_tensor(0.3333).png' width='350'></div><div><img src='images/experiment/pair_5_101_out_tensor(0.3333).png' width='60'><br>Up Next</div></div>","0","","images/experiment/pair_37_57_out_tensor(0.3333).png","","","images/experiment/pair_5_101_out_tensor(0.3333).png","","","",""
"","timed-html-button-response","145","868074","0.0-12.0-0.0-0.75","520tj","20210930","1404","V4-20210927","","","","","18838.900000002235","<div id='feedbackText' class='feedbackAttentionCheck'>You have missed the attention check.<br>Please pay attention to the image!</div><div class='container'><div style='width:60px;'></div><div class='centerContainer'><img class='centerImage' src='images/experiment/pair_5_101_out_tensor(0.3333).png' width='350'></div><div><img src='images/experiment/37_start.png' width='60'><br>Up Next</div></div>","0","","images/experiment/pair_5_101_out_tensor(0.3333).png","","","images/experiment/37_start.png","","","",""
"","timed-html-button-response","146","875874","0.0-12.0-0.0-0.76","520tj","20210930","1404","V4-20210927","","","","","7789","<div id='feedbackText' class='feedbackAttentionCheck'>You have missed the attention check.<br>Please pay attention to the image!</div><div class='container'><div style='width:60px;'></div><div class='centerContainer'><img class='centerImage' src='images/experiment/37_start.png' width='350'></div><div><img src='images/experiment/pair_101_64_out_tensor(0.6667).png' width='60'><br>Up Next</div></div>","0","","images/experiment/37_start.png","","","images/experiment/pair_101_64_out_tensor(0.6667).png","","","",""
"","timed-html-button-response","147","888305","0.0-12.0-0.0-0.77","520tj","20210930","1404","V4-20210927","","","","","12425.10000000149","<div id='feedbackText' class='feedbackAttentionCheck'>You have missed the attention check.<br>Please pay attention to the image!</div><div class='container'><div style='width:60px;'></div><div class='centerContainer'><img class='centerImage' src='images/experiment/pair_101_64_out_tensor(0.6667).png' width='350'></div><div><img src='images/experiment/pair_64_57_out_tensor(0.5000).png' width='60'><br>Up Next</div></div>","0","","images/experiment/pair_101_64_out_tensor(0.6667).png","","","images/experiment/pair_64_57_out_tensor(0.5000).png","","","",""
"","timed-html-button-response","148","890131","0.0-12.0-0.0-0.78","520tj","20210930","1404","V4-20210927","","","","","1820.2999999970198","<div id='feedbackText' class='feedbackAttentionCheck'>You have missed the attention check.<br>Please pay attention to the image!</div><div class='container'><div style='width:60px;'></div><div class='centerContainer'><img class='centerImage' src='images/experiment/pair_64_57_out_tensor(0.5000).png' width='350'></div><div><img src='images/experiment/pair_92_64_out_tensor(0.5000).png' width='60'><br>Up Next</div></div>","0","","images/experiment/pair_64_57_out_tensor(0.5000).png","","","images/experiment/pair_92_64_out_tensor(0.5000).png","","","",""
"","timed-html-button-response","149","892369","0.0-12.0-0.0-0.79","520tj","20210930","1404","V4-20210927","","","","","2231","<div id='feedbackText' class='feedbackAttentionCheck'>You have missed the attention check.<br>Please pay attention to the image!</div><div class='container'><div style='width:60px;'></div><div class='centerContainer'><img class='centerImage' src='images/experiment/pair_92_64_out_tensor(0.5000).png' width='350'></div><div><img src='images/experiment/pair_37_92_out_tensor(0.3333).png' width='60'><br>Up Next</div></div>","0","","images/experiment/pair_92_64_out_tensor(0.5000).png","","","images/experiment/pair_37_92_out_tensor(0.3333).png","","","",""
"","timed-html-button-response","150","902142","0.0-12.0-0.0-0.80","520tj","20210930","1404","V4-20210927","","","","","9767.800000000745","<div id='feedbackText' class='feedbackAttentionCheck'>You have missed the attention check.<br>Please pay attention to the image!</div><div class='container'><div style='width:60px;'></div><div class='centerContainer'><img class='centerImage' src='images/experiment/pair_37_92_out_tensor(0.3333).png' width='350'></div><div><img src='images/experiment/pair_37_41_out_tensor(0.6667).png' width='60'><br>Up Next</div></div>","0","","images/experiment/pair_37_92_out_tensor(0.3333).png","","","images/experiment/pair_37_41_out_tensor(0.6667).png","","","",""
"","timed-html-button-response","151","903275","0.0-12.0-0.0-0.81","520tj","20210930","1404","V4-20210927","","","","","1126.5","<div id='feedbackText' class='feedbackAttentionCheck'>You have missed the attention check.<br>Please pay attention to the image!</div><div class='container'><div style='width:60px;'></div><div class='centerContainer'><img class='centerImage' src='images/experiment/pair_37_41_out_tensor(0.6667).png' width='350'></div><div><img src='images/experiment/pair_5_101_out_tensor(0.6667).png' width='60'><br>Up Next</div></div>","0","","images/experiment/pair_37_41_out_tensor(0.6667).png","","","images/experiment/pair_5_101_out_tensor(0.6667).png","","","",""
"","timed-html-button-response","152","906160","0.0-12.0-0.0-0.82","520tj","20210930","1404","V4-20210927","","","","","2879.699999999255","<div id='feedbackText' class='feedbackAttentionCheck'>You have missed the attention check.<br>Please pay attention to the image!</div><div class='container'><div style='width:60px;'></div><div class='centerContainer'><img class='centerImage' src='images/experiment/pair_5_101_out_tensor(0.6667).png' width='350'></div><div><img src='images/experiment/pair_64_57_out_tensor(0.6667).png' width='60'><br>Up Next</div></div>","0","","images/experiment/pair_5_101_out_tensor(0.6667).png","","","images/experiment/pair_64_57_out_tensor(0.6667).png","","","",""
"","timed-html-button-response","153","907227","0.0-12.0-0.0-0.83","520tj","20210930","1404","V4-20210927","","","","","1064.0999999977648","<div id='feedbackText' class='feedbackAttentionCheck'>You have missed the attention check.<br>Please pay attention to the image!</div><div class='container'><div style='width:60px;'></div><div class='centerContainer'><img class='centerImage' src='images/experiment/pair_64_57_out_tensor(0.6667).png' width='350'></div><div><img src='images/experiment/57_start.png' width='60'><br>Up Next</div></div>","0","","images/experiment/pair_64_57_out_tensor(0.6667).png","","","images/experiment/57_start.png","","","",""
"","timed-html-button-response","154","912415","0.0-12.0-0.0-0.84","520tj","20210930","1404","V4-20210927","","","","","5182.699999999255","<div id='feedbackText' class='feedbackAttentionCheck'>You have missed the attention check.<br>Please pay attention to the image!</div><div class='container'><div style='width:60px;'></div><div class='centerContainer'><img class='centerImage' src='images/experiment/57_start.png' width='350'></div><div><img src='images/experiment/41_start.png' width='60'><br>Up Next</div></div>","0","","images/experiment/57_start.png","","","images/experiment/41_start.png","","","",""
"","timed-html-button-response","155","913781","0.0-12.0-0.0-0.85","520tj","20210930","1404","V4-20210927","","","","","1361.5999999977648","<div id='feedbackText' class='feedbackAttentionCheck'>You have missed the attention check.<br>Please pay attention to the image!</div><div class='container'><div style='width:60px;'></div><div class='centerContainer'><img class='centerImage' src='images/experiment/41_start.png' width='350'></div><div><img src='images/experiment/pair_37_64_out_tensor(0.5000).png' width='60'><br>Up Next</div></div>","0","","images/experiment/41_start.png","","","images/experiment/pair_37_64_out_tensor(0.5000).png","","","",""
"","timed-html-button-response","156","914949","0.0-12.0-0.0-0.86","520tj","20210930","1404","V4-20210927","","","","","1162.800000000745","<div id='feedbackText' class='feedbackAttentionCheck'>You have missed the attention check.<br>Please pay attention to the image!</div><div class='container'><div style='width:60px;'></div><div class='centerContainer'><img class='centerImage' src='images/experiment/pair_37_64_out_tensor(0.5000).png' width='350'></div><div><img src='images/experiment/pair_37_64_out_tensor(0.6667).png' width='60'><br>Up Next</div></div>","0","","images/experiment/pair_37_64_out_tensor(0.5000).png","","","images/experiment/pair_37_64_out_tensor(0.6667).png","","","",""
"","timed-html-button-response","157","915869","0.0-12.0-0.0-0.87","520tj","20210930","1404","V4-20210927","","","","","910.6000000014901","<div id='feedbackText' class='feedbackAttentionCheck'>You have missed the attention check.<br>Please pay attention to the image!</div><div class='container'><div style='width:60px;'></div><div class='centerContainer'><img class='centerImage' src='images/experiment/pair_37_64_out_tensor(0.6667).png' width='350'></div><div><img src='images/experiment/pair_92_57_out_tensor(0.3333).png' width='60'><br>Up Next</div></div>","0","","images/experiment/pair_37_64_out_tensor(0.6667).png","","","images/experiment/pair_92_57_out_tensor(0.3333).png","","","",""
"","timed-html-button-response","158","917160","0.0-12.0-0.0-0.88","520tj","20210930","1404","V4-20210927","","","","","1282.4000000022352","<div id='feedbackText' class='feedbackAttentionCheck'>You have missed the attention check.<br>Please pay attention to the image!</div><div class='container'><div style='width:60px;'></div><div class='centerContainer'><img class='centerImage' src='images/experiment/pair_92_57_out_tensor(0.3333).png' width='350'></div><div><img src='images/experiment/pair_64_41_out_tensor(0.3333).png' width='60'><br>Up Next</div></div>","0","","images/experiment/pair_92_57_out_tensor(0.3333).png","","","images/experiment/pair_64_41_out_tensor(0.3333).png","","","",""
"","timed-html-button-response","159","918219","0.0-12.0-0.0-0.89","520tj","20210930","1404","V4-20210927","","","","","1053.8999999985099","<div id='feedbackText' class='feedbackAttentionCheck'>You have missed the attention check.<br>Please pay attention to the image!</div><div class='container'><div style='width:60px;'></div><div class='centerContainer'><img class='centerImage' src='images/experiment/pair_64_41_out_tensor(0.3333).png' width='350'></div><div><img src='images/experiment/pair_37_101_out_tensor(0.3333).png' width='60'><br>Up Next</div></div>","0","","images/experiment/pair_64_41_out_tensor(0.3333).png","","","images/experiment/pair_37_101_out_tensor(0.3333).png","","","",""
"","timed-html-button-response","160","935679","0.0-12.0-0.0-0.90","520tj","20210930","1404","V4-20210927","","","","","17450.300000000745","<div id='feedbackText' class='feedbackAttentionCheck'>You have missed the attention check.<br>Please pay attention to the image!</div><div class='container'><div style='width:60px;'></div><div class='centerContainer'><img class='centerImage' src='images/experiment/pair_37_101_out_tensor(0.3333).png' width='350'></div><div><img src='images/experiment/pair_92_57_out_tensor(0.6667).png' width='60'><br>Up Next</div></div>","0","","images/experiment/pair_37_101_out_tensor(0.3333).png","","","images/experiment/pair_92_57_out_tensor(0.6667).png","","","",""
"","timed-html-button-response","161","942185","0.0-12.0-0.0-0.91","520tj","20210930","1404","V4-20210927","","","","","6496.099999997765","<div id='feedbackText' class='feedbackAttentionCheck'>You have missed the attention check.<br>Please pay attention to the image!</div><div class='container'><div style='width:60px;'></div><div class='centerContainer'><img class='centerImage' src='images/experiment/pair_92_57_out_tensor(0.6667).png' width='350'></div><div><img src='images/experiment/101_start.png' width='60'><br>Up Next</div></div>","0","","images/experiment/pair_92_57_out_tensor(0.6667).png","","","images/experiment/101_start.png","","","",""
"","timed-html-button-response","162","943792","0.0-12.0-0.0-0.92","520tj","20210930","1404","V4-20210927","","","","","1599","<div id='feedbackText' class='feedbackAttentionCheck'>You have missed the attention check.<br>Please pay attention to the image!</div><div class='container'><div style='width:60px;'></div><div class='centerContainer'><img class='centerImage' src='images/experiment/101_start.png' width='350'></div><div><img src='images/experiment/pair_101_64_out_tensor(0.3333).png' width='60'><br>Up Next</div></div>","0","","images/experiment/101_start.png","","","images/experiment/pair_101_64_out_tensor(0.3333).png","","","",""
"","timed-html-button-response","163","949732","0.0-12.0-0.0-0.93","520tj","20210930","1404","V4-20210927","","","","","5931.900000002235","<div id='feedbackText' class='feedbackAttentionCheck'>You have missed the attention check.<br>Please pay attention to the image!</div><div class='container'><div style='width:60px;'></div><div class='centerContainer'><img class='centerImage' src='images/experiment/pair_101_64_out_tensor(0.3333).png' width='350'></div><div><img src='images/experiment/pair_64_57_out_tensor(0.3333).png' width='60'><br>Up Next</div></div>","0","","images/experiment/pair_101_64_out_tensor(0.3333).png","","","images/experiment/pair_64_57_out_tensor(0.3333).png","","","",""
"","timed-html-button-response","164","950844","0.0-12.0-0.0-0.94","520tj","20210930","1404","V4-20210927","","","","","1102.800000000745","<div id='feedbackText' class='feedbackAttentionCheck'>You have missed the attention check.<br>Please pay attention to the image!</div><div class='container'><div style='width:60px;'></div><div class='centerContainer'><img class='centerImage' src='images/experiment/pair_64_57_out_tensor(0.3333).png' width='350'></div><div><img src='images/experiment/pair_37_41_out_tensor(0.3333).png' width='60'><br>Up Next</div></div>","0","","images/experiment/pair_64_57_out_tensor(0.3333).png","","","images/experiment/pair_37_41_out_tensor(0.3333).png","","","",""
"","timed-html-button-response","165","960658","0.0-12.0-0.0-0.95","520tj","20210930","1404","V4-20210927","","","","","9807.60000000149","<div id='feedbackText' class='feedbackAttentionCheck'>You have missed the attention check.<br>Please pay attention to the image!</div><div class='container'><div style='width:60px;'></div><div class='centerContainer'><img class='centerImage' src='images/experiment/pair_37_41_out_tensor(0.3333).png' width='350'></div><div><img src='images/experiment/pair_5_64_out_tensor(0.5000).png' width='60'><br>Up Next</div></div>","0","","images/experiment/pair_37_41_out_tensor(0.3333).png","","","images/experiment/pair_5_64_out_tensor(0.5000).png","","","",""
"","timed-html-button-response","166","972575","0.0-12.0-0.0-0.96","520tj","20210930","1404","V4-20210927","","","","","11907.70000000298","<div id='feedbackText' class='feedbackAttentionCheck'>You have missed the attention check.<br>Please pay attention to the image!</div><div class='container'><div style='width:60px;'></div><div class='centerContainer'><img class='centerImage' src='images/experiment/pair_5_64_out_tensor(0.5000).png' width='350'></div><div><img src='images/experiment/92_start.png' width='60'><br>Up Next</div></div>","0","","images/experiment/pair_5_64_out_tensor(0.5000).png","","","images/experiment/92_start.png","","","",""
"","timed-html-button-response","167","974701","0.0-12.0-0.0-0.97","520tj","20210930","1404","V4-20210927","","","","","2115.10000000149","<div id='feedbackText' class='feedbackAttentionCheck'>You have missed the attention check.<br>Please pay attention to the image!</div><div class='container'><div style='width:60px;'></div><div class='centerContainer'><img class='centerImage' src='images/experiment/92_start.png' width='350'></div><div><img src='images/experiment/pair_5_92_out_tensor(0.3333).png' width='60'><br>Up Next</div></div>","0","","images/experiment/92_start.png","","","images/experiment/pair_5_92_out_tensor(0.3333).png","","","",""
"","timed-html-button-response","168","986880","0.0-12.0-0.0-0.98","520tj","20210930","1404","V4-20210927","","","","","12172.20000000298","<div id='feedbackText' class='feedbackAttentionCheck'>You have missed the attention check.<br>Please pay attention to the image!</div><div class='container'><div style='width:60px;'></div><div class='centerContainer'><img class='centerImage' src='images/experiment/pair_5_92_out_tensor(0.3333).png' width='350'></div><div><img src='images/experiment/5_start.png' width='60'><br>Up Next</div></div>","0","","images/experiment/pair_5_92_out_tensor(0.3333).png","","","images/experiment/5_start.png","","","",""
"","timed-html-button-response","169","1003582","0.0-12.0-0.0-0.99","520tj","20210930","1404","V4-20210927","","","","","16688.89999999851","<div id='feedbackText' class='feedbackAttentionCheck'>You have missed the attention check.<br>Please pay attention to the image!</div><div class='container'><div style='width:60px;'></div><div class='centerContainer'><img class='centerImage' src='images/experiment/5_start.png' width='350'></div><div><img src='images/experiment/pair_37_41_out_tensor(0.5000).png' width='60'><br>Up Next</div></div>","0","","images/experiment/5_start.png","","","images/experiment/pair_37_41_out_tensor(0.5000).png","","","",""
"","timed-html-button-response","170","1005390","0.0-12.0-0.0-0.100","520tj","20210930","1404","V4-20210927","","","","","1799.5999999977648","<div id='feedbackText' class='feedbackAttentionCheck'>You have missed the attention check.<br>Please pay attention to the image!</div><div class='container'><div style='width:60px;'></div><div class='centerContainer'><img class='centerImage' src='images/experiment/pair_37_41_out_tensor(0.5000).png' width='350'></div><div><img src='images/experiment/pair_64_41_out_tensor(0.5000).png' width='60'><br>Up Next</div></div>","0","","images/experiment/pair_37_41_out_tensor(0.5000).png","","","images/experiment/pair_64_41_out_tensor(0.5000).png","","","",""
"","timed-html-button-response","171","1008997","0.0-12.0-0.0-0.101","520tj","20210930","1404","V4-20210927","","","","","3598.10000000149","<div id='feedbackText' class='feedbackAttentionCheck'>You have missed the attention check.<br>Please pay attention to the image!</div><div class='container'><div style='width:60px;'></div><div class='centerContainer'><img class='centerImage' src='images/experiment/pair_64_41_out_tensor(0.5000).png' width='350'></div><div><img src='images/experiment/pair_5_41_out_tensor(0.5000).png' width='60'><br>Up Next</div></div>","0","","images/experiment/pair_64_41_out_tensor(0.5000).png","","","images/experiment/pair_5_41_out_tensor(0.5000).png","","","",""
"","timed-html-button-response","172","1017202","0.0-12.0-0.0-0.102","520tj","20210930","1404","V4-20210927","","","","","8197.89999999851","<div id='feedbackText' class='feedbackAttentionCheck'>You have missed the attention check.<br>Please pay attention to the image!</div><div class='container'><div style='width:60px;'></div><div class='centerContainer'><img class='centerImage' src='images/experiment/pair_5_41_out_tensor(0.5000).png' width='350'></div><div><img src='images/experiment/pair_37_92_out_tensor(0.5000).png' width='60'><br>Up Next</div></div>","0","","images/experiment/pair_5_41_out_tensor(0.5000).png","","","images/experiment/pair_37_92_out_tensor(0.5000).png","","","",""
"","timed-html-button-response","173","1023989","0.0-12.0-0.0-0.103","520tj","20210930","1404","V4-20210927","","","","","6775.199999999255","<div id='feedbackText' class='feedbackAttentionCheck'>You have missed the attention check.<br>Please pay attention to the image!</div><div class='container'><div style='width:60px;'></div><div class='centerContainer'><img class='centerImage' src='images/experiment/pair_37_92_out_tensor(0.5000).png' width='350'></div><div><img src='images/experiment/pair_5_92_out_tensor(0.5000).png' width='60'><br>Up Next</div></div>","0","","images/experiment/pair_37_92_out_tensor(0.5000).png","","","images/experiment/pair_5_92_out_tensor(0.5000).png","","","",""
